File: AutoAnalysis Examples/EC/C000A-0ppb-B_C01.mpt
EC-Lab ASCII FILE
Nb header lines : 59

Cyclic Voltammetry

Run on channel : 1 (SN 22398)
User :
CE vs. WE compliance from -10 V to 10 V
Electrode connection : standard
Ewe ctrl range : min = -1.00 V, max = 1.00 V
Safety Limits :
	Ewe min = -2.00 V
	Ewe max = 2.00 V
	|I| = 50.000 mA
	for t > 10 ms
Acquisition started on : 11/21/2018 11:35:49
Technique started on : 11/21/2018 11:35:49
Saved on :
	File : C000A-0ppb-B_C01.mpr
	Directory : \\ECCOMPUTER\Users\Lab User\Google Drive\Electrochemical Data\EC-Lab\Data\FREDsense\Tim\2018.11.21 - EC comparison to High Throughput\
	Host : 172.16.1.30
Device : SP-50 (SN 0301030103010301)
Address : USB
EC-Lab for windows v11.02 (software)
Internet server v11.02 (firmware)
Command interpretor v11.02 (firmware)
Electrode material : Au/Pd
Initial state :
Electrolyte : NaCl (0.2M)
Comments : Fe(CN)63-/Fe(CN)64- 5.10-3 M
Reference electrode : SCE Saturated Calomel Electrode (0.241 V)
Electrode surface area : 0.001 cm²
Characteristic mass : 0.001 g
Equivalent Weight : 0.000 g/eq.
Density : 0.000 g/cm3
Cycle Definition : Charge/Discharge alternance
Ei (V)              -0.100
vs.                 Ref
dE/dt               50.000
dE/dt unit          mV/s
E1 (V)              0.300
vs.                 Ref
Step percent        50
N                   10
E range min (V)     -1.000
E range max (V)     1.000
I Range             Auto
I Range min         Unset
I Range max         Unset
I Range init        Unset
Bandwidth           5
E2 (V)              -0.200
vs.                 Ref
nc cycles           2
Reverse Scan        1
Ef (V)              0.000
vs.                 Eoc

mode	ox/red	error	control changes	counter inc.	time/s	control/V	Ewe/V	<I>/mA	cycle number	(Q-Qo)/C	P/W
2	1	0	1	0	0.000000000000000E+000	-0.0984851	-0.0987584	-9.14944e-05	1	0.0000000E+000	9.03584e-09
2	1	0	0	0	0.111	-0.0929349	-0.0931101	-1.60817e-05	1	-1.00003e-09	1.49737e-09
2	1	0	1	0	0.2265	-0.0871597	-0.0874056	2.62734e-05	1	1.8825e-09	-2.29645e-09
2	1	0	1	0	0.3265	-0.0821595	-0.0823689	3.46674e-05	1	5.24019e-09	-2.85551e-09
2	1	0	1	0	0.4265	-0.0771593	-0.0773736	3.9237e-05	1	9.17314e-09	-3.03591e-09
2	1	0	1	0	0.5265	-0.0721591	-0.0723645	4.08374e-05	1	1.34408e-08	-2.95518e-09
2	1	0	1	0	0.6265	-0.0671589	-0.0673692	4.32944e-05	1	1.79914e-08	-2.91671e-09
2	1	0	1	0	0.7265	-0.0621587	-0.062375	4.67283e-05	1	2.28084e-08	-2.91468e-09
2	1	0	1	0	0.8265	-0.0571585	-0.0573489	4.74419e-05	1	2.78404e-08	-2.72074e-09
2	1	0	1	0	0.9265	-0.0521583	-0.0523462	5.31227e-05	1	3.30743e-08	-2.78077e-09
2	1	0	1	0	1.0265	-0.0471581	-0.0473095	5.37462e-05	1	3.84957e-08	-2.54271e-09
2	1	0	1	0	1.1265	-0.0421579	-0.0423651	5.47442e-05	1	4.4103e-08	-2.31924e-09
2	1	0	1	0	1.2265	-0.0371577	-0.0373316	5.72225e-05	1	4.99246e-08	-2.13621e-09
2	1	0	1	0	1.3265	-0.0321575	-0.0323395	6.05557e-05	1	5.59516e-08	-1.95834e-09
2	1	0	1	0	1.4265	-0.0271573	-0.0273771	6.16402e-05	1	6.22279e-08	-1.68753e-09
2	1	0	1	0	1.5265	-0.022157	-0.0223584	6.42227e-05	1	6.87993e-08	-1.43592e-09
2	1	0	1	0	1.6265	-0.0171568	-0.0173653	6.91315e-05	1	7.57388e-08	-1.20049e-09
2	1	0	1	0	1.7265	-0.0121566	-0.012406	7.38301e-05	1	8.3104e-08	-9.15935e-10
2	1	0	1	0	1.8265	-0.00715643	-0.00737463	7.88555e-05	1	9.10271e-08	-5.81531e-10
2	1	0	1	0	1.9265	-0.00215623	-0.00237297	8.91889e-05	1	9.96648e-08	-2.11642e-10
2	1	0	1	0	2.0265	0.00284397	0.002634	9.97997e-05	1	1.09293e-07	2.62873e-10
2	1	0	1	0	2.1265	0.00784417	0.00767383	0.00011294	1	1.20098e-07	8.66682e-10
2	1	0	1	0	2.2265	0.0128444	0.0126458	0.000129281	1	1.32476e-07	1.63486e-09
2	1	0	1	0	2.3265	0.0178446	0.0176729	0.000154268	1	1.46885e-07	2.72637e-09
2	1	0	1	0	2.4265	0.0228448	0.022612	0.000180994	1	1.6388e-07	4.09264e-09
2	1	0	1	0	2.5265	0.027845	0.0276476	0.000218162	1	1.84169e-07	6.03167e-09
2	1	0	1	0	2.6265	0.0328452	0.0327013	0.00026403	1	2.08484e-07	8.63412e-09
2	1	0	1	0	2.7265	0.0378454	0.0377538	0.000317093	1	2.37674e-07	1.19715e-08
2	1	0	1	0	2.8265	0.0428456	0.0426866	0.000376656	1	2.7259e-07	1.60781e-08
2	1	0	1	0	2.9265	0.0478458	0.0476395	0.000446773	1	3.13982e-07	2.1284e-08
2	1	0	1	0	3.0265	0.052846	0.0526825	0.000518995	1	3.62524e-07	2.7342e-08
2	1	0	1	0	3.1265	0.0578462	0.0576725	0.000593806	1	4.18406e-07	3.42463e-08
2	1	0	1	0	3.2265	0.0628464	0.0626996	0.000665223	1	4.81575e-07	4.17092e-08
2	1	0	1	0	3.3265	0.0678466	0.0676906	0.000730299	1	5.51613e-07	4.94344e-08
2	1	0	1	0	3.4265	0.0728468	0.0727347	0.000784511	1	6.27625e-07	5.70612e-08
2	1	0	1	0	3.5265	0.077847	0.0776834	0.00082773	1	7.08536e-07	6.43008e-08
2	1	0	1	0	3.6265	0.0828472	0.0826766	0.000856616	1	7.93024e-07	7.0822e-08
2	1	0	1	0	3.7265	0.0878474	0.0876994	0.000873327	1	8.79755e-07	7.65903e-08
2	1	0	1	0	3.8265	0.0928476	0.0926937	0.000876065	1	9.67529e-07	8.12057e-08
2	1	0	1	0	3.9265	0.0978478	0.0976254	0.000872934	1	1.05528e-06	8.52205e-08
2	1	0	1	0	4.0265	0.102848	0.102713	0.000861319	1	1.14218e-06	8.84686e-08
2	1	0	1	0	4.1265	0.107848	0.107694	0.000843511	1	1.22764e-06	9.08414e-08
2	1	0	1	0	4.2265	0.112848	0.112717	0.000823904	1	1.31127e-06	9.28682e-08
2	1	0	1	0	4.3265	0.117849	0.117634	0.000802596	1	1.39285e-06	9.44127e-08
2	1	0	1	0	4.4265	0.122849	0.1226	0.000781305	1	1.47228e-06	9.57878e-08
2	1	0	1	0	4.5265	0.127849	0.127669	0.000759847	1	1.54955e-06	9.70091e-08
2	1	0	1	0	4.6265	0.132849	0.132669	0.000739502	1	1.62473e-06	9.81088e-08
2	1	0	1	0	4.7265	0.137849	0.13766	0.000720919	1	1.69792e-06	9.92417e-08
2	1	0	1	0	4.8265	0.14285	0.142618	0.000701669	1	1.76928e-06	1.00071e-07
2	1	0	0	0	4.9267	0.14785	0.147643	0.000686203	1	1.83903e-06	1.01313e-07
2	1	0	0	0	5.0267	0.15285	0.152736	0.000672702	1	1.90708e-06	1.02746e-07
2	1	0	0	0	5.1267	0.15785	0.157671	0.000656237	1	1.9737e-06	1.03469e-07
2	1	0	0	0	5.2267	0.16285	0.162748	0.000644044	1	2.03899e-06	1.04817e-07
2	1	0	0	0	5.3267	0.167851	0.167661	0.000632845	1	2.1031e-06	1.06104e-07
2	1	0	0	0	5.4267	0.172851	0.172665	0.000623299	1	2.16612e-06	1.07622e-07
2	1	0	0	0	5.5267	0.177851	0.177707	0.000614185	1	2.22815e-06	1.09145e-07
2	1	0	0	0	5.6267	0.182851	0.182629	0.000604546	1	2.28932e-06	1.10408e-07
2	1	0	0	0	5.7267	0.187851	0.187662	0.000597201	1	2.34968e-06	1.12072e-07
2	1	0	0	0	5.8267	0.192852	0.192694	0.000591868	1	2.40933e-06	1.1405e-07
2	1	0	0	0	5.9267	0.197852	0.197658	0.00058599	1	2.46834e-06	1.15825e-07
2	1	0	0	0	6.0267	0.202852	0.202694	0.000579272	1	2.52678e-06	1.17415e-07
2	1	0	0	0	6.1267	0.207852	0.207685	0.000575774	1	2.58474e-06	1.1958e-07
2	1	0	0	0	6.2267	0.212852	0.212736	0.000572146	1	2.64225e-06	1.21716e-07
2	1	0	0	0	6.3267	0.217853	0.217725	0.000567653	1	2.69937e-06	1.23592e-07
2	1	0	0	0	6.4267	0.222853	0.222702	0.000563339	1	2.75615e-06	1.25457e-07
2	1	0	0	0	6.5267	0.227853	0.227673	0.000562205	1	2.81264e-06	1.27999e-07
2	1	0	0	0	6.6267	0.232853	0.232659	0.000559898	1	2.8689e-06	1.30265e-07
2	1	0	0	0	6.7267	0.237853	0.237648	0.000556648	1	2.92494e-06	1.32286e-07
2	1	0	0	0	6.8267	0.242854	0.242642	0.000555691	1	2.98082e-06	1.34834e-07
2	1	0	0	0	6.9267	0.247854	0.247706	0.000554754	1	3.03658e-06	1.37416e-07
2	1	0	0	0	7.0267	0.252854	0.252666	0.000552937	1	3.09223e-06	1.39709e-07
2	1	0	0	0	7.1267	0.257854	0.257742	0.00055302	1	3.14788e-06	1.42537e-07
2	1	0	0	0	7.2267	0.262854	0.262693	0.000552253	1	3.20346e-06	1.45073e-07
2	1	0	0	0	7.3267	0.267855	0.267701	0.000554345	1	3.25905e-06	1.48399e-07
2	1	0	0	0	7.4267	0.272855	0.272727	0.00055464	1	3.31468e-06	1.51265e-07
2	1	0	0	0	7.5267	0.277855	0.277682	0.000554548	1	3.37038e-06	1.53988e-07
2	1	0	0	0	7.6267	0.282855	0.282703	0.000555376	1	3.42618e-06	1.57006e-07
2	1	0	0	0	7.7267	0.287855	0.287676	0.000556971	1	3.48209e-06	1.60227e-07
2	1	0	0	0	7.8267	0.292856	0.292717	0.000558358	1	3.53814e-06	1.63441e-07
2	1	0	0	0	7.9267	0.297856	0.297638	0.000560446	1	3.59437e-06	1.6681e-07
2	0	0	1	0	8.0153	0.297706	0.2975	0.000444957	1	3.63949e-06	1.32375e-07
2	0	0	1	0	8.1153	0.292706	0.292503	0.000402134	1	3.68148e-06	1.17625e-07
2	0	0	1	0	8.2153	0.287705	0.287499	0.000374773	1	3.72012e-06	1.07747e-07
2	0	0	1	0	8.3153	0.282705	0.282569	0.000353973	1	3.75632e-06	1.00022e-07
2	0	0	1	0	8.4153	0.277705	0.277531	0.000335375	1	3.79057e-06	9.30768e-08
2	0	0	1	0	8.5153	0.272705	0.272534	0.000319052	1	3.82323e-06	8.69525e-08
2	0	0	1	0	8.6153	0.267705	0.267501	0.000306781	1	3.85452e-06	8.20641e-08
2	0	0	1	0	8.7153	0.262704	0.262545	0.000296392	1	3.88463e-06	7.78163e-08
2	0	0	1	0	8.8153	0.257704	0.257487	0.000286199	1	3.91371e-06	7.36924e-08
2	0	0	1	0	8.9153	0.252704	0.252479	0.000277817	1	3.94182e-06	7.01429e-08
2	0	0	1	0	9.0153	0.247704	0.24751	0.000270476	1	3.96912e-06	6.69455e-08
2	0	0	1	0	9.1153	0.242704	0.24252	0.000263522	1	3.99567e-06	6.39093e-08
2	0	0	1	0	9.2153	0.237703	0.237465	0.00025573	1	4.0215e-06	6.0727e-08
2	0	0	1	0	9.3153	0.232703	0.232491	0.000249966	1	4.04669e-06	5.8115e-08
2	0	0	1	0	9.4153	0.227703	0.227503	0.000244328	1	4.07127e-06	5.55854e-08
2	0	0	1	0	9.5153	0.222703	0.222551	0.000239836	1	4.09529e-06	5.33759e-08
2	0	0	1	0	9.6153	0.217703	0.217532	0.000239735	1	4.11907e-06	5.21501e-08
2	0	0	1	0	9.7153	0.212702	0.212481	0.000236171	1	4.14273e-06	5.01819e-08
2	0	0	1	0	9.8153	0.207702	0.207542	0.000228436	1	4.16575e-06	4.74101e-08
2	0	0	1	0	9.9153	0.202702	0.202483	0.00021945	1	4.18788e-06	4.4435e-08
2	0	0	1	0	10.0153	0.197702	0.197509	0.000214017	1	4.20935e-06	4.22703e-08
2	0	0	1	0	10.1153	0.192702	0.192539	0.0002105	1	4.23032e-06	4.05295e-08
2	0	0	1	0	10.2153	0.187701	0.187493	0.000205121	1	4.25084e-06	3.84588e-08
2	0	0	1	0	10.3153	0.182701	0.182453	0.000200912	1	4.27094e-06	3.6657e-08
2	0	0	1	0	10.4153	0.177701	0.177497	0.000197319	1	4.29062e-06	3.50236e-08
2	0	0	1	0	10.5153	0.172701	0.172507	0.000191202	1	4.30984e-06	3.29837e-08
2	0	0	1	0	10.6153	0.167701	0.167468	0.000186712	1	4.32863e-06	3.12683e-08
2	0	0	1	0	10.7153	0.1627	0.162495	0.000183076	1	4.34693e-06	2.97491e-08
2	0	0	1	0	10.8153	0.1577	0.157483	0.000177666	1	4.36476e-06	2.79794e-08
2	0	0	1	0	10.9153	0.1527	0.152452	0.000169783	1	4.38207e-06	2.58837e-08
2	0	0	1	0	11.0153	0.1477	0.147438	0.000165367	1	4.39885e-06	2.43814e-08
2	0	0	0	0	11.1155	0.1427	0.142447	0.000160053	1	4.41511e-06	2.27992e-08
2	0	0	0	0	11.2155	0.137699	0.137481	0.000153749	1	4.43072e-06	2.11375e-08
2	0	0	0	0	11.3155	0.132699	0.132495	0.000147937	1	4.4457e-06	1.9601e-08
2	0	0	0	0	11.4155	0.127699	0.127469	0.000139789	1	4.45995e-06	1.78188e-08
2	0	0	0	0	11.5155	0.122699	0.12247	0.000130895	1	4.47333e-06	1.60308e-08
2	0	0	0	0	11.6155	0.117699	0.117454	0.000120474	1	4.48569e-06	1.41501e-08
2	0	0	0	0	11.7155	0.112698	0.11251	0.000110126	1	4.4972e-06	1.23902e-08
2	0	0	0	0	11.8155	0.107698	0.107467	9.62051e-05	1	4.50734e-06	1.03388e-08
2	0	0	0	0	11.9155	0.102698	0.102477	7.93448e-05	1	4.516e-06	8.13098e-09
2	0	0	0	0	12.0155	0.0976978	0.0974515	6.06351e-05	1	4.52289e-06	5.90899e-09
2	0	0	0	0	12.1155	0.0926976	0.092506	3.73452e-05	1	4.52766e-06	3.45466e-09
2	0	0	0	0	12.2155	0.0876974	0.0875319	9.42026e-06	1	4.52986e-06	8.24574e-10
2	0	0	0	0	12.3155	0.0826972	0.082438	-2.34206e-05	1	4.529e-06	-1.93075e-09
2	0	0	0	0	12.4155	0.077697	0.0774565	-6.46995e-05	1	4.52445e-06	-5.0114e-09
2	0	0	0	0	12.5155	0.0726968	0.0724782	-0.000111271	1	4.51549e-06	-8.06468e-09
2	0	0	0	0	12.6155	0.0676966	0.0675284	-0.000168655	1	4.50142e-06	-1.1389e-08
2	0	0	0	0	12.7155	0.0626964	0.0624695	-0.000229296	1	4.48148e-06	-1.4324e-08
2	0	0	0	0	12.8155	0.0576962	0.0575421	-0.000298775	1	4.455e-06	-1.71921e-08
2	0	0	0	0	12.9155	0.052696	0.0525171	-0.000370341	1	4.42153e-06	-1.94492e-08
2	0	0	0	0	13.0155	0.0476958	0.0474868	-0.000441894	1	4.3808e-06	-2.09841e-08
2	0	0	0	0	13.1155	0.0426956	0.0424502	-0.000509059	1	4.33312e-06	-2.16096e-08
2	0	0	0	0	13.2155	0.0376954	0.0374527	-0.000567202	1	4.27909e-06	-2.12433e-08
2	0	0	0	0	13.3155	0.0326952	0.0325104	-0.000614192	1	4.21975e-06	-1.99676e-08
2	0	0	0	0	13.4155	0.027695	0.0274844	-0.000645141	1	4.15649e-06	-1.77313e-08
2	0	0	0	0	13.5155	0.0226948	0.0225209	-0.000662268	1	4.09081e-06	-1.49148e-08
2	0	0	0	0	13.6155	0.0176946	0.0174863	-0.000665045	1	4.02422e-06	-1.16292e-08
2	0	0	0	0	13.7155	0.0126944	0.012508	-0.000654865	1	3.95803e-06	-8.19105e-09
2	0	0	0	0	13.8155	0.00769417	0.00751376	-0.00063571	1	3.89328e-06	-4.77657e-09
2	0	0	0	0	13.9155	0.00269396	0.00250891	-0.000610746	1	3.83071e-06	-1.5323e-09
2	0	0	0	0	14.0155	-0.00230624	-0.00254471	-0.00058642	1	3.7707e-06	1.49227e-09
2	0	0	0	0	14.1155	-0.00730644	-0.00753365	-0.000555735	1	3.71351e-06	4.18671e-09
2	0	0	0	0	14.2155	-0.0123066	-0.0125237	-0.000528172	1	3.65919e-06	6.61465e-09
2	0	0	0	0	14.3155	-0.0173068	-0.0175646	-0.000501241	1	3.60759e-06	8.80408e-09
2	0	0	0	0	14.4155	-0.0223071	-0.022491	-0.00047746	1	3.55857e-06	1.07385e-08
2	0	0	0	0	14.5155	-0.0273073	-0.0275318	-0.000454827	1	3.51192e-06	1.25222e-08
2	0	0	0	0	14.6155	-0.0323075	-0.0325356	-0.000432509	1	3.46743e-06	1.4072e-08
2	0	0	0	0	14.7155	-0.0373077	-0.0376062	-0.000415068	1	3.42491e-06	1.56091e-08
2	0	0	0	0	14.8155	-0.0423079	-0.0425591	-0.000397723	1	3.38412e-06	1.69268e-08
2	0	0	0	0	14.9155	-0.0473081	-0.0475173	-0.000383064	1	3.34495e-06	1.82022e-08
2	0	0	0	0	15.0155	-0.0523083	-0.0526133	-0.000371408	1	3.3072e-06	1.9541e-08
2	0	0	0	0	15.1155	-0.0573085	-0.0575376	-0.000356909	1	3.27073e-06	2.05357e-08
2	0	0	0	0	15.2155	-0.0623087	-0.0625425	-0.000346724	1	3.23545e-06	2.1685e-08
2	0	0	0	0	15.3155	-0.0673089	-0.0675759	-0.000335804	1	3.2012e-06	2.26923e-08
2	0	0	0	0	15.4155	-0.0723091	-0.0726126	-0.000328281	1	3.16794e-06	2.38373e-08
2	0	0	0	0	15.5155	-0.0773093	-0.0775348	-0.000318151	1	3.13555e-06	2.46677e-08
2	0	0	0	0	15.6155	-0.0823095	-0.0825301	-0.000310144	1	3.10396e-06	2.55962e-08
2	0	0	0	0	15.7155	-0.0873097	-0.0875392	-0.000302744	1	3.07311e-06	2.6502e-08
2	0	0	0	0	15.8155	-0.0923099	-0.092544	-0.00029721	1	3.04292e-06	2.7505e-08
2	0	0	0	0	15.9155	-0.0973101	-0.0975086	-0.000291674	1	3.01339e-06	2.84407e-08
2	0	0	1	0	16.0157	-0.10231	-0.10254	-0.000285395	1	2.98439e-06	2.92644e-08
2	0	0	1	0	16.1157	-0.107311	-0.107535	-0.000280249	1	2.95598e-06	3.01367e-08
2	0	0	1	0	16.2157	-0.112311	-0.112563	-0.000275605	1	2.92806e-06	3.10231e-08
2	0	0	1	0	16.3157	-0.117311	-0.117511	-0.00026987	1	2.9006e-06	3.17127e-08
2	0	0	1	0	16.4157	-0.122311	-0.122529	-0.000266109	1	2.87359e-06	3.2606e-08
2	0	0	1	0	16.5157	-0.127311	-0.127544	-0.000262907	1	2.84698e-06	3.35322e-08
2	0	0	1	0	16.6157	-0.132312	-0.132492	-0.000257624	1	2.82073e-06	3.4133e-08
2	0	0	1	0	16.7157	-0.137312	-0.137506	-0.000255525	1	2.79483e-06	3.51362e-08
2	0	0	1	0	16.8157	-0.142312	-0.142542	-0.000252319	1	2.76925e-06	3.5966e-08
2	0	0	1	0	16.9157	-0.147312	-0.14758	-0.000249627	1	2.74396e-06	3.68401e-08
2	0	0	1	0	17.0157	-0.152312	-0.152515	-0.000248064	1	2.71896e-06	3.78335e-08
2	0	0	1	0	17.1157	-0.157313	-0.157543	-0.00024475	1	2.69414e-06	3.85588e-08
2	0	0	1	0	17.2157	-0.162313	-0.162609	-0.000243482	1	2.66959e-06	3.95922e-08
2	0	0	1	0	17.3157	-0.167313	-0.167474	-0.000241072	1	2.64523e-06	4.03733e-08
2	0	0	1	0	17.4157	-0.172313	-0.17253	-0.000239657	1	2.62106e-06	4.13482e-08
2	0	0	1	0	17.5157	-0.177313	-0.177577	-0.000236856	1	2.59701e-06	4.20601e-08
2	0	0	1	0	17.6157	-0.182314	-0.182487	-0.000236504	1	2.57309e-06	4.3159e-08
2	0	0	1	0	17.7157	-0.187314	-0.187494	-0.000235344	1	2.54929e-06	4.41256e-08
2	0	0	1	0	17.8157	-0.192314	-0.192549	-0.000235037	1	2.52556e-06	4.5256e-08
2	0	0	1	0	17.9157	-0.197314	-0.197476	-0.000234639	1	2.50188e-06	4.63356e-08
2	1	0	0	1	18.0051	-0.198214	-0.198379	-0.000129978	1	2.48426e-06	2.5785e-08
2	1	0	0	1	18.1051	-0.193214	-0.193431	-0.000109769	1	2.47268e-06	2.12327e-08
2	1	0	0	1	18.2051	-0.188214	-0.188407	-9.45427e-05	1	2.46279e-06	1.78125e-08
2	1	0	0	1	18.3051	-0.183214	-0.183421	-8.47322e-05	1	2.45405e-06	1.55417e-08
2	1	0	0	1	18.4051	-0.178213	-0.1784	-7.631e-05	1	2.44623e-06	1.36137e-08
2	1	0	0	1	18.5051	-0.173213	-0.173398	-6.87587e-05	1	2.43917e-06	1.19226e-08
2	1	0	0	1	18.6051	-0.168213	-0.168398	-6.3055e-05	1	2.43277e-06	1.06183e-08
2	1	0	0	1	18.7051	-0.163213	-0.163444	-5.69892e-05	1	2.42696e-06	9.31454e-09
2	1	0	0	1	18.8051	-0.158213	-0.158402	-5.20344e-05	1	2.42167e-06	8.24236e-09
2	1	0	0	1	18.9051	-0.153212	-0.15337	-4.88019e-05	1	2.41688e-06	7.48474e-09
2	1	0	0	1	19.0051	-0.148212	-0.148385	-4.40291e-05	1	2.41251e-06	6.53326e-09
2	1	0	0	1	19.1051	-0.143212	-0.143361	-3.93711e-05	1	2.40853e-06	5.64429e-09
2	1	0	0	1	19.2051	-0.138212	-0.138417	-3.78626e-05	1	2.40493e-06	5.24082e-09
2	1	0	0	1	19.3051	-0.133212	-0.13342	-3.29909e-05	1	2.40168e-06	4.40166e-09
2	1	0	0	1	19.4051	-0.128211	-0.128421	-2.98573e-05	1	2.39875e-06	3.8343e-09
2	1	0	0	1	19.5051	-0.123211	-0.123401	-2.6812e-05	1	2.39613e-06	3.30864e-09
2	1	0	0	1	19.6051	-0.118211	-0.118416	-2.5141e-05	1	2.3938e-06	2.97711e-09
2	1	0	0	1	19.7051	-0.113211	-0.1134	-2.19527e-05	1	2.39177e-06	2.48943e-09
2	1	0	0	1	19.8051	-0.108211	-0.10839	-1.8722e-05	1	2.38998e-06	2.02927e-09
2	1	0	0	1	19.9051	-0.10321	-0.103408	-1.66782e-05	1	2.38844e-06	1.72467e-09
2	1	0	1	1	20.0053	-0.0982101	-0.0983514	-1.36789e-05	2	2.38714e-06	1.34534e-09
2	1	0	1	1	20.1053	-0.09321	-0.0934493	-1.25996e-05	2	2.38607e-06	1.17743e-09
2	1	0	1	1	20.2053	-0.0882097	-0.0884	-8.63583e-06	2	2.38523e-06	7.63408e-10
2	1	0	1	1	20.3053	-0.0832095	-0.0833771	-8.05646e-06	2	2.38459e-06	6.71724e-10
2	1	0	1	1	20.4053	-0.0782093	-0.0784168	-6.39604e-06	2	2.38416e-06	5.01557e-10
2	1	0	1	1	20.5053	-0.0732091	-0.0734596	-3.54685e-06	2	2.38393e-06	2.6055e-10
2	1	0	1	1	20.6053	-0.0682089	-0.0683763	-1.69566e-06	2	2.3839e-06	1.15943e-10
2	1	0	1	1	20.7053	-0.0632087	-0.0634033	6.4481e-07	2	2.38406e-06	-4.0883e-11
2	1	0	1	1	20.8053	-0.0582085	-0.0584218	1.33017e-06	2	2.38441e-06	-7.7711e-11
2	1	0	1	1	20.9053	-0.0532083	-0.0534222	3.50814e-06	2	2.38495e-06	-1.87412e-10
2	1	0	1	1	21.0053	-0.0482081	-0.0484036	6.44919e-06	2	2.38573e-06	-3.12164e-10
2	1	0	1	1	21.1053	-0.0432079	-0.0433584	8.18909e-06	2	2.3867e-06	-3.55066e-10
2	1	0	1	1	21.2053	-0.0382077	-0.038361	1.12926e-05	2	2.38791e-06	-4.33197e-10
2	1	0	1	1	21.3053	-0.0332075	-0.0334548	1.25521e-05	2	2.38937e-06	-4.19927e-10
2	1	0	1	1	21.4053	-0.0282073	-0.0284383	1.64329e-05	2	2.39113e-06	-4.67322e-10
2	1	0	1	1	21.5053	-0.0232071	-0.023391	1.96194e-05	2	2.39323e-06	-4.58918e-10
2	1	0	1	1	21.6053	-0.0182069	-0.0184137	2.39789e-05	2	2.39572e-06	-4.41541e-10
2	1	0	1	1	21.7053	-0.0132067	-0.0134046	2.96137e-05	2	2.3987e-06	-3.96961e-10
2	1	0	1	1	21.8053	-0.00820648	-0.00839129	3.62253e-05	2	2.40228e-06	-3.03977e-10
2	1	0	1	1	21.9053	-0.00320627	-0.00343627	4.49178e-05	2	2.4066e-06	-1.5435e-10
2	1	0	1	1	22.0053	0.00179393	0.00162158	5.69681e-05	2	2.41193e-06	9.23786e-11
2	1	0	1	1	22.1053	0.00679413	0.00662643	6.99847e-05	2	2.41841e-06	4.63749e-10
2	1	0	1	1	22.2053	0.0117943	0.0115602	8.70057e-05	2	2.42642e-06	1.00581e-09
2	1	0	1	1	22.3053	0.0167945	0.0165895	0.000109374	2	2.43636e-06	1.81445e-09
2	1	0	1	1	22.4053	0.0217947	0.0216229	0.000135158	2	2.44874e-06	2.92251e-09
2	1	0	1	1	22.5053	0.0267949	0.0266299	0.000168348	2	2.46414e-06	4.4831e-09
2	1	0	1	1	22.6053	0.0317951	0.0316422	0.000210902	2	2.48323e-06	6.67341e-09
2	1	0	1	1	22.7053	0.0367953	0.0366407	0.000257592	2	2.50675e-06	9.43834e-09
2	1	0	1	1	22.8053	0.0417955	0.0416455	0.000312869	2	2.53545e-06	1.30296e-08
2	1	0	1	1	22.9053	0.0467957	0.0465984	0.000372581	2	2.57002e-06	1.73617e-08
2	1	0	1	1	23.0053	0.0517959	0.0516425	0.000442155	2	2.61105e-06	2.2834e-08
2	1	0	1	1	23.1053	0.0567961	0.0566208	0.000509268	2	2.65888e-06	2.88352e-08
2	1	0	1	1	23.2053	0.0617963	0.0615663	0.00057747	2	2.71354e-06	3.55527e-08
2	1	0	1	1	23.3053	0.0667965	0.0666443	0.000640698	2	2.77478e-06	4.26989e-08
2	1	0	1	1	23.4053	0.0717967	0.0716481	0.00069507	2	2.84195e-06	4.98004e-08
2	1	0	1	1	23.5053	0.0767969	0.0766211	0.000740729	2	2.91412e-06	5.67555e-08
2	1	0	1	1	23.6053	0.0817971	0.08168	0.000773671	2	2.9902e-06	6.31935e-08
2	1	0	1	1	23.7053	0.0867973	0.0866181	0.000793878	2	3.06895e-06	6.87643e-08
2	1	0	1	1	23.8053	0.0917976	0.0916346	0.000803972	2	3.14923e-06	7.36716e-08
2	1	0	1	1	23.9053	0.0967978	0.096666	0.000802984	2	3.2299e-06	7.76213e-08
2	1	0	1	1	24.0053	0.101798	0.101611	0.000794831	2	3.3101e-06	8.07639e-08
2	1	0	1	1	24.1053	0.106798	0.106619	0.000779733	2	3.38914e-06	8.31347e-08
2	1	0	1	1	24.2053	0.111798	0.111634	0.000762513	2	3.46653e-06	8.51222e-08
2	1	0	1	1	24.3053	0.116799	0.116654	0.000741355	2	3.54197e-06	8.64817e-08
2	1	0	1	1	24.4053	0.121799	0.12157	0.000719642	2	3.61528e-06	8.74872e-08
2	1	0	1	1	24.5053	0.126799	0.126641	0.00069782	2	3.6864e-06	8.83726e-08
2	1	0	1	1	24.6053	0.131799	0.131686	0.000677279	2	3.75538e-06	8.91882e-08
2	1	0	1	1	24.7053	0.136799	0.136599	0.000655979	2	3.82226e-06	8.9606e-08
2	1	0	1	1	24.8053	0.1418	0.141606	0.000637443	2	3.88718e-06	9.02655e-08
2	1	0	1	1	24.9053	0.1468	0.146565	0.000619443	2	3.95023e-06	9.07887e-08
2	1	0	0	1	25.0055	0.1518	0.151668	0.000601269	2	4.01167e-06	9.11935e-08
2	1	0	0	1	25.1055	0.1568	0.156601	0.000585361	2	4.07144e-06	9.16682e-08
2	1	0	0	1	25.2055	0.1618	0.161596	0.000572743	2	4.12972e-06	9.25533e-08
2	1	0	0	1	25.3055	0.166801	0.166614	0.000559237	2	4.18666e-06	9.31768e-08
2	1	0	0	1	25.4055	0.171801	0.171641	0.000547636	2	4.24236e-06	9.39968e-08
2	1	0	0	1	25.5055	0.176801	0.17661	0.000538463	2	4.29693e-06	9.50979e-08
2	1	0	0	1	25.6055	0.181801	0.181668	0.000526377	2	4.35046e-06	9.56258e-08
2	1	0	0	1	25.7055	0.186801	0.186619	0.000518193	2	4.40304e-06	9.67045e-08
2	1	0	0	1	25.8055	0.191802	0.19163	0.000510338	2	4.45475e-06	9.7796e-08
2	1	0	0	1	25.9055	0.196802	0.19662	0.000502791	2	4.50568e-06	9.88586e-08
2	1	0	0	1	26.0055	0.201802	0.201604	0.00049634	2	4.55586e-06	1.00064e-07
2	1	0	0	1	26.1055	0.206802	0.206606	0.000489142	2	4.60543e-06	1.0106e-07
2	1	0	0	1	26.2055	0.211802	0.211677	0.000484386	2	4.65438e-06	1.02533e-07
2	1	0	0	1	26.3055	0.216803	0.216655	0.000479433	2	4.70281e-06	1.03872e-07
2	1	0	0	1	26.4055	0.221803	0.221588	0.000474359	2	4.75076e-06	1.05112e-07
2	1	0	0	1	26.5055	0.226803	0.226612	0.000470201	2	4.79827e-06	1.06553e-07
2	1	0	0	1	26.6055	0.231803	0.231689	0.000466934	2	4.84542e-06	1.08183e-07
2	1	0	0	1	26.7055	0.236803	0.236612	0.000463653	2	4.89223e-06	1.09706e-07
2	1	0	0	1	26.8055	0.241804	0.241639	0.000461084	2	4.93874e-06	1.11416e-07
2	1	0	0	1	26.9055	0.246804	0.246681	0.000458647	2	4.98503e-06	1.13139e-07
2	1	0	0	1	27.0055	0.251804	0.25163	0.000457064	2	5.03113e-06	1.15011e-07
2	1	0	0	1	27.1055	0.256804	0.256632	0.000457433	2	5.07711e-06	1.17392e-07
2	1	0	0	1	27.2055	0.261804	0.261645	0.000455098	2	5.12298e-06	1.19074e-07
2	1	0	0	1	27.3055	0.266805	0.266603	0.000456197	2	5.16882e-06	1.21623e-07
2	1	0	0	1	27.4055	0.271805	0.271695	0.000455103	2	5.21467e-06	1.23649e-07
2	1	0	0	1	27.5055	0.276805	0.276599	0.000457629	2	5.26058e-06	1.2658e-07
2	1	0	0	1	27.6055	0.281805	0.281651	0.000458548	2	5.30658e-06	1.29151e-07
2	1	0	0	1	27.7055	0.286805	0.286685	0.000459876	2	5.35274e-06	1.31839e-07
2	1	0	0	1	27.8055	0.291806	0.291609	0.000460793	2	5.39909e-06	1.34371e-07
2	1	0	0	1	27.9055	0.296806	0.296648	0.000464191	2	5.44571e-06	1.37701e-07
2	0	0	0	1	27.9951	0.298706	0.298534	0.000368518	2	5.48527e-06	1.10015e-07
2	0	0	0	1	28.0951	0.293706	0.293549	0.000332365	2	5.51993e-06	9.75655e-08
2	0	0	0	1	28.1951	0.288705	0.288508	0.000310759	2	5.55194e-06	8.96564e-08
2	0	0	0	1	28.2951	0.283705	0.283477	0.000295838	2	5.5821e-06	8.38632e-08
2	0	0	0	1	28.3951	0.278705	0.278542	0.00028203	2	5.61076e-06	7.85572e-08
2	0	0	0	1	28.4951	0.273705	0.273527	0.000269632	2	5.63822e-06	7.37514e-08
2	0	0	0	1	28.5951	0.268705	0.268508	0.000261582	2	5.66464e-06	7.02369e-08
2	0	0	0	1	28.6951	0.263704	0.263505	0.000253598	2	5.69015e-06	6.68244e-08
2	0	0	0	1	28.7951	0.258704	0.258452	0.000244664	2	5.71486e-06	6.32337e-08
2	0	0	0	1	28.8951	0.253704	0.253459	0.000236732	2	5.73882e-06	6.00021e-08
2	0	0	0	1	28.9951	0.248704	0.248514	0.000231329	2	5.76216e-06	5.74885e-08
2	0	0	0	1	29.0951	0.243704	0.243485	0.000226491	2	5.78488e-06	5.51471e-08
2	0	0	0	1	29.1951	0.238703	0.238483	0.000221208	2	5.80704e-06	5.27543e-08
2	0	0	0	1	29.2951	0.233703	0.233512	0.000216032	2	5.82868e-06	5.04461e-08
2	0	0	0	1	29.3951	0.228703	0.228509	0.000211376	2	5.84983e-06	4.83014e-08
2	0	0	0	1	29.4951	0.223703	0.223494	0.000206723	2	5.87051e-06	4.62014e-08
2	0	0	0	1	29.5951	0.218703	0.218528	0.00020239	2	5.89076e-06	4.4228e-08
2	0	0	0	1	29.6951	0.213702	0.213497	0.00019822	2	5.91057e-06	4.23193e-08
2	0	0	0	1	29.7951	0.208702	0.20852	0.0001946	2	5.92998e-06	4.0578e-08
2	0	0	0	1	29.8951	0.203702	0.203514	0.00018902	2	5.94898e-06	3.84682e-08
2	0	0	0	1	29.9951	0.198702	0.198475	0.000187346	2	5.96757e-06	3.71835e-08
2	0	0	0	1	30.0951	0.193702	0.193503	0.000183889	2	5.98579e-06	3.55831e-08
2	0	0	0	1	30.1951	0.188701	0.188489	0.000178798	2	6.00362e-06	3.37014e-08
2	0	0	0	1	30.2951	0.183701	0.183485	0.000175057	2	6.02107e-06	3.21203e-08
2	0	0	0	1	30.3951	0.178701	0.178493	0.000172291	2	6.03812e-06	3.07526e-08
2	0	0	0	1	30.4951	0.173701	0.173456	0.000165787	2	6.05478e-06	2.87568e-08
2	0	0	0	1	30.5951	0.168701	0.168473	0.00016241	2	6.07105e-06	2.73617e-08
2	0	0	0	1	30.6951	0.1637	0.163469	0.000158071	2	6.0869e-06	2.58397e-08
2	0	0	0	1	30.7951	0.1587	0.158505	0.000154166	2	6.10233e-06	2.44361e-08
2	0	0	0	1	30.8951	0.1537	0.153495	0.000149746	2	6.11732e-06	2.29853e-08
2	0	0	0	1	30.9951	0.1487	0.14848	0.000144016	2	6.1318e-06	2.13834e-08
2	0	0	1	1	31.0953	0.1437	0.143463	0.000139902	2	6.14585e-06	2.00708e-08
2	0	0	1	1	31.1953	0.138699	0.138495	0.000133792	2	6.15932e-06	1.85296e-08
2	0	0	1	1	31.2953	0.133699	0.13347	0.000127377	2	6.17219e-06	1.7001e-08
2	0	0	1	1	31.3953	0.128699	0.128499	0.000119147	2	6.18441e-06	1.53103e-08
2	0	0	1	1	31.4953	0.123699	0.123463	0.000113518	2	6.19587e-06	1.40152e-08
2	0	0	1	1	31.5953	0.118699	0.11851	0.000102585	2	6.20648e-06	1.21574e-08
2	0	0	1	1	31.6953	0.113698	0.113463	9.37816e-05	2	6.21613e-06	1.06407e-08
2	0	0	1	1	31.7953	0.108698	0.108456	8.03799e-05	2	6.22464e-06	8.71765e-09
2	0	0	1	1	31.8953	0.103698	0.1035	6.64907e-05	2	6.23179e-06	6.88176e-09
2	0	0	1	1	31.9953	0.0986978	0.0985138	4.82686e-05	2	6.23731e-06	4.75512e-09
2	0	0	1	1	32.0953	0.0936976	0.0934962	2.69394e-05	2	6.24091e-06	2.51873e-09
2	0	0	1	1	32.1953	0.0886974	0.0885115	2.57969e-07	2	6.24217e-06	2.28332e-11
2	0	0	1	1	32.2953	0.0836972	0.0835141	-3.05904e-05	2	6.24059e-06	-2.55473e-09
2	0	0	1	1	32.3953	0.078697	0.0784965	-6.86014e-05	2	6.23561e-06	-5.38497e-09
2	0	0	1	1	32.4953	0.0736968	0.0734715	-0.000111376	2	6.22656e-06	-8.183e-09
2	0	0	1	1	32.5953	0.0686966	0.0685048	-0.000162791	2	6.21274e-06	-1.1152e-08
2	0	0	1	1	32.6953	0.0636964	0.0635604	-0.000221379	2	6.19341e-06	-1.40709e-08
2	0	0	1	1	32.7953	0.0586962	0.0585195	-0.00028666	2	6.16784e-06	-1.67752e-08
2	0	0	1	1	32.8953	0.053696	0.0535051	-0.000355568	2	6.13552e-06	-1.90247e-08
2	0	0	1	1	32.9953	0.0486958	0.0484483	-0.000428877	2	6.09608e-06	-2.07784e-08
2	0	0	1	1	33.0953	0.0436956	0.0434339	-0.000497498	2	6.04958e-06	-2.16083e-08
2	0	0	1	1	33.1953	0.0386954	0.0384768	-0.000559894	2	5.99647e-06	-2.15429e-08
2	0	0	1	1	33.2953	0.0336952	0.0335186	-0.000611171	2	5.9376e-06	-2.04856e-08
2	0	0	1	1	33.3953	0.028695	0.0284671	-0.000649944	2	5.87421e-06	-1.8502e-08
2	0	0	1	1	33.4953	0.0236948	0.0235407	-0.00067432	2	5.80774e-06	-1.5874e-08
2	0	0	1	1	33.5953	0.0186946	0.0184765	-0.000681592	2	5.73968e-06	-1.25934e-08
2	0	0	1	1	33.6953	0.0136944	0.0134801	-0.000677575	2	5.67145e-06	-9.13381e-09
2	0	0	1	1	33.7953	0.00869421	0.00851027	-0.000662459	2	5.6042e-06	-5.6377e-09
2	0	0	1	1	33.8953	0.003694	0.00345878	-0.000641309	2	5.53881e-06	-2.21815e-09
2	0	0	1	1	33.9953	-0.0013062	-0.00154607	-0.000615377	2	5.4758e-06	9.51415e-10
2	0	0	1	1	34.0953	-0.0063064	-0.00651381	-0.000587678	2	5.41551e-06	3.82803e-09
2	0	0	1	1	34.1953	-0.0113066	-0.0115377	-0.000558796	2	5.35805e-06	6.44724e-09
2	0	0	1	1	34.2953	-0.0163068	-0.0165161	-0.000531687	2	5.30337e-06	8.78139e-09
2	0	0	1	1	34.3953	-0.021307	-0.0215623	-0.000506041	2	5.25133e-06	1.09114e-08
2	0	0	1	1	34.4953	-0.0263072	-0.026512	-0.000482604	2	5.20174e-06	1.27948e-08
2	0	0	1	1	34.5953	-0.0313074	-0.0315635	-0.000461794	2	5.1544e-06	1.45758e-08
2	0	0	1	1	34.6953	-0.0363076	-0.0365302	-0.000440557	2	5.10911e-06	1.60936e-08
2	0	0	1	1	34.7953	-0.0413078	-0.0415637	-0.000424276	2	5.06565e-06	1.76345e-08
2	0	0	1	1	34.8953	-0.046308	-0.0465346	-0.000408034	2	5.02386e-06	1.89877e-08
2	0	0	1	1	34.9953	-0.0513082	-0.051532	-0.000394016	2	4.98358e-06	2.03044e-08
2	0	0	1	1	35.0953	-0.0563084	-0.0565443	-0.000381923	2	4.94461e-06	2.15956e-08
2	0	0	1	1	35.1953	-0.0613086	-0.0615438	-0.000369376	2	4.90689e-06	2.27328e-08
2	0	0	1	1	35.2953	-0.0663089	-0.0665625	-0.000358725	2	4.87028e-06	2.38776e-08
2	0	0	1	1	35.3953	-0.071309	-0.0715641	-0.00034908	2	4.83469e-06	2.49816e-08
2	0	0	1	1	35.4953	-0.0763093	-0.0765828	-0.00034114	2	4.80004e-06	2.61255e-08
2	0	0	1	1	35.5953	-0.0813095	-0.0815282	-0.000332349	2	4.76621e-06	2.70958e-08
2	0	0	1	1	35.6953	-0.0863097	-0.0865236	-0.000323784	2	4.73319e-06	2.80149e-08
2	0	0	1	1	35.7953	-0.0913099	-0.0915804	-0.000317506	2	4.70088e-06	2.90773e-08
2	0	0	1	1	35.8953	-0.0963101	-0.0965661	-0.00031144	2	4.66925e-06	3.00746e-08
2	0	0	0	1	35.9955	-0.10131	-0.101554	-0.000303896	2	4.63819e-06	3.08619e-08
2	0	0	0	1	36.0955	-0.10631	-0.106603	-0.000298429	2	4.60776e-06	3.18135e-08
2	0	0	0	1	36.1955	-0.111311	-0.111531	-0.000293631	2	4.57786e-06	3.2749e-08
2	0	0	0	1	36.2955	-0.116311	-0.116582	-0.000289963	2	4.54847e-06	3.38045e-08
2	0	0	0	1	36.3955	-0.121311	-0.121584	-0.000284407	2	4.51954e-06	3.45794e-08
2	0	0	0	1	36.4955	-0.126311	-0.12655	-0.000279818	2	4.49106e-06	3.54109e-08
2	0	0	0	1	36.5955	-0.131311	-0.131518	-0.00027645	2	4.46298e-06	3.63582e-08
2	0	0	0	1	36.6955	-0.136312	-0.136497	-0.00027252	2	4.4353e-06	3.7198e-08
2	0	0	0	1	36.7955	-0.141312	-0.141602	-0.000268508	2	4.40797e-06	3.80214e-08
2	0	0	0	1	36.8955	-0.146312	-0.146516	-0.000266316	2	4.38096e-06	3.90195e-08
2	0	0	0	1	36.9955	-0.151312	-0.151522	-0.000263423	2	4.35427e-06	3.99143e-08
2	0	0	0	1	37.0955	-0.156313	-0.156512	-0.000260614	2	4.32781e-06	4.07892e-08
2	0	0	0	1	37.1955	-0.161313	-0.161524	-0.000257157	2	4.30164e-06	4.15371e-08
2	0	0	0	1	37.2955	-0.166313	-0.166538	-0.000255117	2	4.2757e-06	4.24866e-08
2	0	0	0	1	37.3955	-0.171313	-0.171497	-0.000254306	2	4.24996e-06	4.36127e-08
2	0	0	0	1	37.4955	-0.176313	-0.176575	-0.000252038	2	4.22439e-06	4.45036e-08
2	0	0	0	1	37.5955	-0.181314	-0.18156	-0.000250954	2	4.19897e-06	4.5563e-08
2	0	0	0	1	37.6955	-0.186314	-0.186588	-0.000250115	2	4.17369e-06	4.66683e-08
2	0	0	0	1	37.7955	-0.191314	-0.191537	-0.000249184	2	4.14851e-06	4.7728e-08
2	0	0	0	1	37.8955	-0.196314	-0.196534	-0.000248175	2	4.12339e-06	4.87748e-08
2	1	0	1	0	37.9849	-0.199214	-0.199349	-0.000150804	2	4.10248e-06	3.00627e-08
2	1	0	1	0	38.0849	-0.194214	-0.19444	-0.000124216	2	4.08919e-06	2.41526e-08
2	1	0	1	0	38.1849	-0.189214	-0.189396	-0.000109926	2	4.07779e-06	2.08196e-08
2	1	0	1	0	38.2849	-0.184214	-0.184467	-9.98508e-05	2	4.06761e-06	1.84192e-08
2	1	0	1	0	38.3849	-0.179213	-0.179374	-9.11442e-05	2	4.05836e-06	1.63489e-08
2	1	0	1	0	38.4849	-0.174213	-0.174402	-8.18706e-05	2	4.0499e-06	1.42784e-08
2	1	0	1	0	38.5849	-0.169213	-0.169399	-7.69159e-05	2	4.04212e-06	1.30295e-08
2	1	0	1	0	38.6849	-0.164213	-0.164406	-7.26589e-05	2	4.03494e-06	1.19455e-08
2	1	0	1	0	38.7849	-0.159213	-0.159405	-6.60101e-05	2	4.02829e-06	1.05223e-08
2	1	0	1	0	38.8849	-0.154212	-0.154423	-6.29296e-05	2	4.02215e-06	9.7178e-09
2	1	0	1	0	38.9849	-0.149212	-0.149353	-5.79483e-05	2	4.01645e-06	8.65475e-09
2	1	0	1	0	39.0849	-0.144212	-0.144435	-5.35694e-05	2	4.01116e-06	7.7373e-09
2	1	0	1	0	39.1849	-0.139212	-0.139379	-4.89733e-05	2	4.00626e-06	6.82586e-09
2	1	0	1	0	39.2849	-0.134212	-0.134367	-4.63148e-05	2	4.00172e-06	6.22318e-09
2	1	0	1	0	39.3849	-0.129211	-0.129427	-4.25983e-05	2	3.99751e-06	5.51337e-09
2	1	0	1	0	39.4849	-0.124211	-0.124384	-3.96273e-05	2	3.99364e-06	4.92899e-09
2	1	0	1	0	39.5849	-0.119211	-0.119375	-3.63329e-05	2	3.99007e-06	4.33723e-09
2	1	0	1	0	39.6849	-0.114211	-0.114385	-3.454e-05	2	3.98681e-06	3.95085e-09
2	1	0	1	0	39.7849	-0.109211	-0.109373	-3.17262e-05	2	3.9838e-06	3.47e-09
2	1	0	1	0	39.8849	-0.10421	-0.104388	-2.92232e-05	2	3.98107e-06	3.05054e-09
2	1	0	1	0	39.9849	-0.0992102	-0.0993892	-2.55826e-05	3	3.97859e-06	2.54264e-09
2	1	0	0	0	40.0851	-0.09421	-0.0944013	-2.35813e-05	3	3.97634e-06	2.22611e-09
2	1	0	0	0	40.1851	-0.0892098	-0.0893658	-2.0884e-05	3	3.97433e-06	1.86632e-09
2	1	0	0	0	40.2851	-0.0842096	-0.0843842	-1.89604e-05	3	3.97255e-06	1.59996e-09
2	1	0	0	0	40.3851	-0.0792094	-0.0794197	-1.67153e-05	3	3.97098e-06	1.32753e-09
2	1	0	0	0	40.4851	-0.0742092	-0.0744286	-1.55283e-05	3	3.96963e-06	1.15575e-09
2	1	0	0	0	40.5851	-0.069209	-0.0694068	-1.29405e-05	3	3.96848e-06	8.98161e-10
2	1	0	0	0	40.6851	-0.0642088	-0.0643935	-1.13225e-05	3	3.96754e-06	7.29096e-10
2	1	0	0	0	40.7851	-0.0592086	-0.0594352	-8.62877e-06	3	3.9668e-06	5.12853e-10
2	1	0	0	0	40.8851	-0.0542084	-0.0544081	-7.16973e-06	3	3.96626e-06	3.90091e-10
2	1	0	0	0	40.9851	-0.0492081	-0.0494033	-6.14168e-06	3	3.96597e-06	3.03419e-10
2	1	0	0	0	41.0851	-0.0442079	-0.0443942	-2.3245e-06	3	3.96586e-06	1.03194e-10
2	1	0	0	0	41.1851	-0.0392077	-0.0393332	7.80822e-07	3	3.966e-06	-3.07122e-11
2	1	0	0	0	41.2851	-0.0342075	-0.0343972	2.52072e-06	3	3.9664e-06	-8.67058e-11
2	1	0	0	0	41.3851	-0.0292073	-0.0294486	4.88769e-06	3	3.9671e-06	-1.43935e-10
2	1	0	0	0	41.4851	-0.0242071	-0.0244108	8.59359e-06	3	3.96814e-06	-2.09777e-10
2	1	0	0	0	41.5851	-0.0192069	-0.0194155	1.25097e-05	3	3.96957e-06	-2.42882e-10
2	1	0	0	0	41.6851	-0.0142067	-0.0144149	1.81957e-05	3	3.97147e-06	-2.6229e-10
2	1	0	0	0	41.7851	-0.00920652	-0.00940583	2.46201e-05	3	3.97398e-06	-2.31573e-10
2	1	0	0	0	41.8851	-0.00420631	-0.00441689	3.39467e-05	3	3.97721e-06	-1.49939e-10
2	1	0	0	0	41.9851	0.000793888	0.000684434	4.44391e-05	3	3.98139e-06	3.04156e-11
2	1	0	0	0	42.0851	0.00579409	0.00560553	5.61167e-05	3	3.98669e-06	3.14564e-10
2	1	0	0	0	42.1851	0.0107943	0.0105712	7.27791e-05	3	3.99344e-06	7.69359e-10
2	1	0	0	0	42.2851	0.0157945	0.0156078	9.39193e-05	3	4.00203e-06	1.46587e-09
2	1	0	0	0	42.3851	0.0207947	0.020583	0.000119106	3	4.01291e-06	2.45156e-09
2	1	0	0	0	42.4851	0.0257949	0.0256122	0.000149866	3	4.02663e-06	3.83841e-09
2	1	0	0	0	42.5851	0.0307951	0.030617	0.000187913	3	4.04382e-06	5.75333e-09
2	1	0	0	0	42.6851	0.0357953	0.0356229	0.000233058	3	4.06515e-06	8.30223e-09
2	1	0	0	0	42.7851	0.0407955	0.0406426	0.000285292	3	4.09137e-06	1.1595e-08
2	1	0	0	0	42.8851	0.0457957	0.0456305	0.000343949	3	4.12313e-06	1.56946e-08
2	1	0	0	0	42.9851	0.0507959	0.0506523	0.000409133	3	4.16103e-06	2.07235e-08
2	1	0	0	0	43.0851	0.0557961	0.0556201	0.000475016	3	4.20549e-06	2.64204e-08
2	1	0	0	0	43.1851	0.0607963	0.0606355	0.000540265	3	4.2566e-06	3.27592e-08
2	1	0	0	0	43.2851	0.0657965	0.0656807	0.000604104	3	4.31424e-06	3.96779e-08
2	1	0	0	0	43.3851	0.0707967	0.0706049	0.000661111	3	4.37786e-06	4.66777e-08
2	1	0	0	0	43.4851	0.0757969	0.0755896	0.000708948	3	4.44672e-06	5.35891e-08
2	1	0	0	0	43.5851	0.0807971	0.0806295	0.000744889	3	4.5198e-06	6.006e-08
2	1	0	0	0	43.6851	0.0857973	0.0856121	0.000769852	3	4.59592e-06	6.59086e-08
2	1	0	0	0	43.7851	0.0907975	0.0906328	0.000781123	3	4.67394e-06	7.07954e-08
2	1	0	0	0	43.8851	0.0957977	0.0956822	0.000785746	3	4.75273e-06	7.51819e-08
2	1	0	0	0	43.9851	0.100798	0.100634	0.00077992	3	4.83138e-06	7.84865e-08
2	1	0	0	0	44.0851	0.105798	0.105589	0.000766937	3	4.90913e-06	8.09802e-08
2	1	0	0	0	44.1851	0.110798	0.110593	0.000750436	3	4.98542e-06	8.29928e-08
2	1	0	0	0	44.2851	0.115798	0.115616	0.000731638	3	5.05989e-06	8.45888e-08
2	1	0	0	0	44.3851	0.120799	0.120579	0.000709132	3	5.1323e-06	8.55066e-08
2	1	0	0	0	44.4851	0.125799	0.125606	0.000687559	3	5.20257e-06	8.63617e-08
2	1	0	0	0	44.5851	0.130799	0.130677	0.000665654	3	5.27068e-06	8.69856e-08
2	1	0	0	0	44.6851	0.135799	0.135635	0.00064631	3	5.33669e-06	8.76623e-08
2	1	0	0	0	44.7851	0.1408	0.140638	0.000627625	3	5.40068e-06	8.82678e-08
2	1	0	0	0	44.8851	0.1458	0.145656	0.000608725	3	5.46277e-06	8.86647e-08
2	1	0	1	0	44.9853	0.1508	0.150631	0.000590806	3	5.52319e-06	8.89935e-08
2	1	0	1	0	45.0853	0.1558	0.15564	0.00057585	3	5.5819e-06	8.96251e-08
2	1	0	1	0	45.1853	0.1608	0.160648	0.000561779	3	5.63904e-06	9.02485e-08
2	1	0	1	0	45.2853	0.165801	0.165648	0.000548554	3	5.69479e-06	9.08671e-08
2	1	0	1	0	45.3853	0.170801	0.170617	0.000535287	3	5.74925e-06	9.13291e-08
2	1	0	1	0	45.4853	0.175801	0.175633	0.000522956	3	5.80251e-06	9.1848e-08
2	1	0	1	0	45.5853	0.180801	0.180621	0.000513668	3	5.85469e-06	9.27795e-08
2	1	0	1	0	45.6853	0.185801	0.185616	0.000503089	3	5.90585e-06	9.33812e-08
2	1	0	1	0	45.7853	0.190802	0.190629	0.000494732	3	5.9561e-06	9.43103e-08
2	1	0	1	0	45.8853	0.195802	0.195618	0.000487183	3	6.0055e-06	9.53017e-08
2	1	0	1	0	45.9853	0.200802	0.200642	0.000478556	3	6.05412e-06	9.60183e-08
2	1	0	1	0	46.0853	0.205802	0.205671	0.000472921	3	6.10206e-06	9.72662e-08
2	1	0	1	0	46.1853	0.210802	0.210655	0.000465725	3	6.14933e-06	9.81071e-08
2	1	0	1	0	46.2853	0.215803	0.215632	0.00046104	3	6.196e-06	9.9415e-08
2	1	0	1	0	46.3853	0.220803	0.220638	0.000456248	3	6.24214e-06	1.00666e-07
2	1	0	1	0	46.4853	0.225803	0.225623	0.000449753	3	6.28778e-06	1.01474e-07
2	1	0	1	0	46.5853	0.230803	0.230616	0.000445349	3	6.33297e-06	1.02705e-07
2	1	0	1	0	46.6853	0.235803	0.235634	0.000442207	3	6.37775e-06	1.04199e-07
2	1	0	1	0	46.7853	0.240804	0.2406	0.000439225	3	6.42216e-06	1.05678e-07
2	1	0	1	0	46.8853	0.245804	0.24564	0.000435849	3	6.46626e-06	1.07062e-07
2	1	0	1	0	46.9853	0.250804	0.250645	0.000432578	3	6.51009e-06	1.08423e-07
2	1	0	1	0	47.0853	0.255804	0.255646	0.000430612	3	6.55371e-06	1.10084e-07
2	1	0	1	0	47.1853	0.260804	0.260641	0.000429983	3	6.59715e-06	1.12071e-07
2	1	0	1	0	47.2853	0.265805	0.265674	0.000428272	3	6.64044e-06	1.13781e-07
2	1	0	1	0	47.3853	0.270805	0.270687	0.000427699	3	6.68365e-06	1.15773e-07
2	1	0	1	0	47.4853	0.275805	0.275669	0.000428037	3	6.72683e-06	1.17996e-07
2	1	0	1	0	47.5853	0.280805	0.28063	0.000428938	3	6.77002e-06	1.20373e-07
2	1	0	1	0	47.6853	0.285805	0.285665	0.00042939	3	6.81327e-06	1.22662e-07
2	1	0	1	0	47.7853	0.290806	0.290557	0.000430266	3	6.85664e-06	1.25017e-07
2	1	0	1	0	47.8853	0.295806	0.29567	0.000433535	3	6.90018e-06	1.28184e-07
2	0	0	1	0	47.9749	0.299706	0.299556	0.000355259	3	6.93885e-06	1.0642e-07
2	0	0	1	0	48.0749	0.294706	0.294482	0.000313496	3	6.97157e-06	9.23191e-08
2	0	0	1	0	48.1749	0.289706	0.289487	0.000293676	3	7.00164e-06	8.50152e-08
2	0	0	1	0	48.2749	0.284705	0.284518	0.000278506	3	7.02997e-06	7.92399e-08
2	0	0	1	0	48.3749	0.279705	0.279503	0.000266385	3	7.05697e-06	7.44555e-08
2	0	0	1	0	48.4749	0.274705	0.274499	0.00025659	3	7.08287e-06	7.04337e-08
2	0	0	1	0	48.5749	0.269705	0.269544	0.000246709	3	7.10782e-06	6.64988e-08
2	0	0	1	0	48.6749	0.264705	0.264509	0.000240583	3	7.13195e-06	6.36364e-08
2	0	0	1	0	48.7749	0.259704	0.259487	0.000232756	3	7.15536e-06	6.03973e-08
2	0	0	1	0	48.8749	0.254704	0.254467	0.000226261	3	7.17807e-06	5.75759e-08
2	0	0	1	0	48.9749	0.249704	0.249527	0.000222479	3	7.2002e-06	5.55147e-08
2	0	0	1	0	49.0749	0.244704	0.244482	0.000214778	3	7.22179e-06	5.25094e-08
2	0	0	1	0	49.1749	0.239703	0.23947	0.000210685	3	7.24285e-06	5.04528e-08
2	0	0	1	0	49.2749	0.234703	0.234522	0.000206222	3	7.26343e-06	4.83636e-08
2	0	0	1	0	49.3749	0.229703	0.229475	0.000201067	3	7.28355e-06	4.61399e-08
2	0	0	1	0	49.4749	0.224703	0.224487	0.000196844	3	7.30324e-06	4.41889e-08
2	0	0	1	0	49.5749	0.219703	0.219453	0.000194309	3	7.32251e-06	4.26416e-08
2	0	0	1	0	49.6749	0.214702	0.214514	0.00018898	3	7.34137e-06	4.05387e-08
2	0	0	1	0	49.7749	0.209702	0.209524	0.000184705	3	7.35985e-06	3.87001e-08
2	0	0	1	0	49.8749	0.204702	0.2045	0.000181798	3	7.37795e-06	3.71775e-08
2	0	0	1	0	49.9749	0.199702	0.199494	0.000177583	3	7.39567e-06	3.54267e-08
2	0	0	1	0	50.0749	0.194702	0.194483	0.000174568	3	7.41302e-06	3.39504e-08
2	0	0	1	0	50.1749	0.189701	0.189484	0.000170464	3	7.43001e-06	3.23003e-08
2	0	0	1	0	50.2749	0.184701	0.184502	0.000166735	3	7.44665e-06	3.07629e-08
2	0	0	1	0	50.3749	0.179701	0.179526	0.000162484	3	7.4629e-06	2.91701e-08
2	0	0	1	0	50.4749	0.174701	0.174487	0.00015958	3	7.47878e-06	2.78445e-08
2	0	0	1	0	50.5749	0.169701	0.169452	0.000155162	3	7.49426e-06	2.62925e-08
2	0	0	1	0	50.6749	0.1647	0.164457	0.000149949	3	7.50937e-06	2.46602e-08
2	0	0	1	0	50.7749	0.1597	0.159493	0.000147402	3	7.52405e-06	2.35097e-08
2	0	0	1	0	50.8749	0.1547	0.154523	0.000141992	3	7.53832e-06	2.1941e-08
2	0	0	1	0	50.9749	0.1497	0.149421	0.000138915	3	7.55209e-06	2.07568e-08
2	0	0	0	0	51.0751	0.1447	0.144505	0.000131851	3	7.56545e-06	1.90531e-08
2	0	0	0	0	51.1751	0.139699	0.139481	0.000127975	3	7.57826e-06	1.78502e-08
2	0	0	0	0	51.2751	0.134699	0.134538	0.000122703	3	7.5905e-06	1.65082e-08
2	0	0	0	0	51.3751	0.129699	0.129505	0.000115521	3	7.60212e-06	1.49605e-08
2	0	0	0	0	51.4751	0.124699	0.124501	0.000108335	3	7.61302e-06	1.34878e-08
2	0	0	0	0	51.5751	0.119699	0.119465	9.89341e-05	3	7.62312e-06	1.18192e-08
2	0	0	0	0	51.6751	0.114698	0.114467	9.09094e-05	3	7.6323e-06	1.04061e-08
2	0	0	0	0	51.7751	0.109698	0.109505	7.79229e-05	3	7.64038e-06	8.53295e-09
2	0	0	0	0	51.8751	0.104698	0.104498	6.49434e-05	3	7.6472e-06	6.78647e-09
2	0	0	0	0	51.9751	0.0996979	0.0995071	4.71964e-05	3	7.6525e-06	4.69638e-09
2	0	0	0	0	52.0751	0.0946977	0.0945023	2.65914e-05	3	7.65597e-06	2.51295e-09
2	0	0	0	0	52.1751	0.0896975	0.0895282	3.62119e-06	3	7.65724e-06	3.24198e-10
2	0	0	0	0	52.2751	0.0846973	0.0844586	-2.66425e-05	3	7.65584e-06	-2.25019e-09
2	0	0	0	0	52.3751	0.0796971	0.0794983	-6.20799e-05	3	7.65126e-06	-4.93525e-09
2	0	0	0	0	52.4751	0.0746969	0.0745306	-0.000103511	3	7.64283e-06	-7.71471e-09
2	0	0	0	0	52.5751	0.0696967	0.0694748	-0.000151339	3	7.6299e-06	-1.05143e-08
2	0	0	0	0	52.6751	0.0646964	0.0644933	-0.000207896	3	7.61174e-06	-1.34079e-08
2	0	0	0	0	52.7751	0.0596963	0.059497	-0.000270101	3	7.58761e-06	-1.60702e-08
2	0	0	0	0	52.8751	0.0546961	0.0544847	-0.000337864	3	7.55697e-06	-1.84084e-08
2	0	0	0	0	52.9751	0.0496959	0.0494692	-0.000410516	3	7.51935e-06	-2.03079e-08
2	0	0	0	0	53.0751	0.0446957	0.0444283	-0.000479299	3	7.47468e-06	-2.12945e-08
2	0	0	0	0	53.1751	0.0396955	0.0394924	-0.000543073	3	7.42331e-06	-2.14473e-08
2	0	0	0	0	53.2751	0.0346953	0.034477	-0.000598409	3	7.36589e-06	-2.06313e-08
2	0	0	0	0	53.3751	0.0296951	0.0295071	-0.000640871	3	7.30357e-06	-1.89103e-08
2	0	0	0	0	53.4751	0.0246949	0.0245383	-0.000669637	3	7.2377e-06	-1.64318e-08
2	0	0	0	0	53.5751	0.0196946	0.0194656	-0.00068161	3	7.16973e-06	-1.32679e-08
2	0	0	0	0	53.6751	0.0146944	0.0145095	-0.000681845	3	7.10114e-06	-9.89324e-09
2	0	0	0	0	53.7751	0.00969425	0.00946332	-0.000671188	3	7.03311e-06	-6.35167e-09
2	0	0	0	0	53.8751	0.00469405	0.00443515	-0.000650791	3	6.96669e-06	-2.88636e-09
2	0	0	0	0	53.9751	-0.000306156	-0.00045414	-0.000626857	3	6.90249e-06	2.8468e-10
2	0	0	0	0	54.0751	-0.00530636	-0.00556288	-0.000599283	3	6.84081e-06	3.33374e-09
2	0	0	0	0	54.1751	-0.0103066	-0.0105359	-0.000569712	3	6.78197e-06	6.00245e-09
2	0	0	0	0	54.2751	-0.0153068	-0.0155365	-0.000544594	3	6.72591e-06	8.4611e-09
2	0	0	0	0	54.3751	-0.020307	-0.020517	-0.000518598	3	6.67252e-06	1.06401e-08
2	0	0	0	0	54.4751	-0.0253072	-0.0255452	-0.000493935	3	6.62163e-06	1.26177e-08
2	0	0	0	0	54.5751	-0.0303074	-0.0305426	-0.000472067	3	6.57301e-06	1.44182e-08
2	0	0	0	0	54.6751	-0.0353076	-0.0355443	-0.000452939	3	6.52649e-06	1.60994e-08
2	0	0	0	0	54.7751	-0.0403078	-0.0405216	-0.000434509	3	6.48188e-06	1.7607e-08
2	0	0	0	0	54.8751	-0.045308	-0.0455921	-0.000417779	3	6.43895e-06	1.90474e-08
2	0	0	0	0	54.9751	-0.0503082	-0.0505588	-0.000404591	3	6.39757e-06	2.04557e-08
2	0	0	0	0	55.0751	-0.0553084	-0.055604	-0.000391308	3	6.35755e-06	2.17583e-08
2	0	0	0	0	55.1751	-0.0603086	-0.0605982	-0.00037924	3	6.3188e-06	2.29813e-08
2	0	0	0	0	55.2751	-0.0653088	-0.0655871	-0.000367689	3	6.28119e-06	2.41157e-08
2	0	0	0	0	55.3751	-0.070309	-0.070592	-0.000358988	3	6.24462e-06	2.53417e-08
2	0	0	0	0	55.4751	-0.0753092	-0.0755067	-0.000349513	3	6.20901e-06	2.63906e-08
2	0	0	0	0	55.5751	-0.0803094	-0.0805582	-0.00034039	3	6.17426e-06	2.74212e-08
2	0	0	0	0	55.6751	-0.0853096	-0.0855408	-0.000332065	3	6.14032e-06	2.84051e-08
2	0	0	0	0	55.7751	-0.0903098	-0.0905054	-0.000326195	3	6.10713e-06	2.95224e-08
2	0	0	0	0	55.8751	-0.09531	-0.095594	-0.000319303	3	6.07463e-06	3.05234e-08
2	0	0	1	0	55.9753	-0.10031	-0.100554	-0.000312468	3	6.04271e-06	3.142e-08
2	0	0	1	0	56.0753	-0.10531	-0.105568	-0.000306214	3	6.01144e-06	3.23262e-08
2	0	0	1	0	56.1753	-0.110311	-0.110528	-0.000301995	3	5.98074e-06	3.33789e-08
2	0	0	1	0	56.2753	-0.115311	-0.115514	-0.000295834	3	5.95055e-06	3.41729e-08
2	0	0	1	0	56.3753	-0.120311	-0.120562	-0.000291621	3	5.92085e-06	3.51585e-08
2	0	0	1	0	56.4753	-0.125311	-0.125532	-0.000287025	3	5.8916e-06	3.60308e-08
2	0	0	1	0	56.5753	-0.130311	-0.130575	-0.000283007	3	5.86278e-06	3.69536e-08
2	0	0	1	0	56.6753	-0.135312	-0.135566	-0.00027956	3	5.83438e-06	3.78989e-08
2	0	0	1	0	56.7753	-0.140312	-0.140503	-0.000275323	3	5.80634e-06	3.86837e-08
2	0	0	1	0	56.8753	-0.145312	-0.145576	-0.0002712	3	5.77865e-06	3.94801e-08
2	0	0	1	0	56.9753	-0.150312	-0.150548	-0.000269402	3	5.75127e-06	4.05578e-08
2	0	0	1	0	57.0753	-0.155312	-0.155537	-0.000267711	3	5.72418e-06	4.16389e-08
2	0	0	1	0	57.1753	-0.160313	-0.160596	-0.000264852	3	5.69739e-06	4.2534e-08
2	0	0	1	0	57.2753	-0.165313	-0.165575	-0.000261828	3	5.67084e-06	4.33521e-08
2	0	0	1	0	57.3753	-0.170313	-0.170566	-0.000259132	3	5.6445e-06	4.41991e-08
2	0	0	1	0	57.4753	-0.175313	-0.175525	-0.000258929	3	5.61837e-06	4.54486e-08
2	0	0	1	0	57.5753	-0.180313	-0.180538	-0.00025789	3	5.59241e-06	4.65589e-08
2	0	0	1	0	57.6753	-0.185314	-0.185546	-0.000254607	3	5.56658e-06	4.72411e-08
2	0	0	1	0	57.7753	-0.190314	-0.190521	-0.000254787	3	5.54088e-06	4.85421e-08
2	0	0	1	0	57.8753	-0.195314	-0.195565	-0.000253495	3	5.51525e-06	4.95748e-08
2	1	0	1	1	57.9692	-0.199989	-0.200371	-0.000234196	3	5.49128e-06	4.69261e-08
2	1	0	0	1	58.0647	-0.195214	-0.195392	-0.000131649	3	5.47768e-06	2.57232e-08
2	1	0	0	1	58.1647	-0.190214	-0.190383	-0.000117441	3	5.46563e-06	2.23587e-08
2	1	0	0	1	58.2647	-0.185214	-0.185424	-0.000105977	3	5.45482e-06	1.96506e-08
2	1	0	0	1	58.3647	-0.180213	-0.180417	-9.63745e-05	3	5.44499e-06	1.73876e-08
2	1	0	0	1	58.4647	-0.175213	-0.175389	-8.90545e-05	3	5.43597e-06	1.56191e-08
2	1	0	0	1	58.5647	-0.170213	-0.170422	-8.40645e-05	3	5.42763e-06	1.43264e-08
2	1	0	0	1	58.6647	-0.165213	-0.165395	-7.7036e-05	3	5.4199e-06	1.27413e-08
2	1	0	0	1	58.7647	-0.160213	-0.16043	-7.21148e-05	3	5.41271e-06	1.15694e-08
2	1	0	0	1	58.8647	-0.155212	-0.155484	-6.8257e-05	3	5.40601e-06	1.06128e-08
2	1	0	0	1	58.9647	-0.150212	-0.150422	-6.29066e-05	3	5.3998e-06	9.4625e-09
2	1	0	0	1	59.0647	-0.145212	-0.145367	-5.98931e-05	3	5.39399e-06	8.70647e-09
2	1	0	0	1	59.1647	-0.140212	-0.140408	-5.56873e-05	3	5.38857e-06	7.81892e-09
2	1	0	0	1	59.2647	-0.135212	-0.135445	-5.22058e-05	3	5.38351e-06	7.07102e-09
2	1	0	0	1	59.3647	-0.130211	-0.130425	-5.04482e-05	3	5.3788e-06	6.57973e-09
2	1	0	0	1	59.4647	-0.125211	-0.125415	-4.64385e-05	3	5.37443e-06	5.8241e-09
2	1	0	0	1	59.5647	-0.120211	-0.1204	-4.24005e-05	3	5.37038e-06	5.10501e-09
2	1	0	0	1	59.6647	-0.115211	-0.115425	-3.97403e-05	3	5.36661e-06	4.58701e-09
2	1	0	0	1	59.7647	-0.110211	-0.110405	-3.71172e-05	3	5.36314e-06	4.09792e-09
2	1	0	0	1	59.8647	-0.10521	-0.105417	-3.64071e-05	3	5.35994e-06	3.83793e-09
2	1	0	0	1	59.9647	-0.10021	-0.100416	-3.21784e-05	3	5.357e-06	3.23124e-09
2	1	0	1	1	60.0649	-0.09521	-0.0953968	-2.98149e-05	3	5.35427e-06	2.84425e-09
2	1	0	1	1	60.1649	-0.0902098	-0.0903527	-2.83894e-05	3	5.35182e-06	2.56506e-09
2	1	0	1	1	60.2649	-0.0852096	-0.0853776	-2.51446e-05	3	5.34958e-06	2.14678e-09
2	1	0	1	1	60.3649	-0.0802094	-0.080396	-2.23484e-05	3	5.34756e-06	1.79672e-09
2	1	0	1	1	60.4649	-0.0752092	-0.0754622	-2.0393e-05	3	5.34576e-06	1.5389e-09
2	1	0	1	1	60.5649	-0.070209	-0.070434	-1.87008e-05	3	5.34416e-06	1.31717e-09
2	1	0	1	1	60.6649	-0.0652088	-0.065461	-1.62384e-05	3	5.34277e-06	1.06298e-09
2	1	0	1	1	60.7649	-0.0602086	-0.0605038	-1.3686e-05	3	5.34158e-06	8.28053e-10
2	1	0	1	1	60.8649	-0.0552084	-0.0554184	-1.28222e-05	3	5.34062e-06	7.10586e-10
2	1	0	1	1	60.9649	-0.0502082	-0.050403	-9.73277e-06	3	5.33988e-06	4.9056e-10
2	1	0	0	1	60.971	-0.0498832	-0.0503659	-1.32825e-06	3	5.33985e-06	6.68987e-11