File: AutoAnalysis Examples/EC/C000A-10ppb-A_C01.mpt
EC-Lab ASCII FILE
Nb header lines : 59

Cyclic Voltammetry

Run on channel : 1 (SN 22398)
User :
CE vs. WE compliance from -10 V to 10 V
Electrode connection : standard
Ewe ctrl range : min = -1.00 V, max = 1.00 V
Safety Limits :
	Ewe min = -2.00 V
	Ewe max = 2.00 V
	|I| = 50.000 mA
	for t > 10 ms
Acquisition started on : 11/21/2018 10:41:40
Technique started on : 11/21/2018 10:41:40
Saved on :
	File : C000A-10ppb-A_C01.mpr
	Directory : \\ECCOMPUTER\Users\Lab User\Google Drive\Electrochemical Data\EC-Lab\Data\FREDsense\Tim\2018.11.21 - EC comparison to High Throughput\
	Host : 172.16.1.30
Device : SP-50 (SN 0301030103010301)
Address : USB
EC-Lab for windows v11.02 (software)
Internet server v11.02 (firmware)
Command interpretor v11.02 (firmware)
Electrode material : Au/Pd
Initial state :
Electrolyte : NaCl (0.2M)
Comments : Fe(CN)63-/Fe(CN)64- 5.10-3 M
Reference electrode : SCE Saturated Calomel Electrode (0.241 V)
Electrode surface area : 0.001 cm²
Characteristic mass : 0.001 g
Equivalent Weight : 0.000 g/eq.
Density : 0.000 g/cm3
Cycle Definition : Charge/Discharge alternance
Ei (V)              -0.100
vs.                 Ref
dE/dt               50.000
dE/dt unit          mV/s
E1 (V)              0.300
vs.                 Ref
Step percent        50
N                   10
E range min (V)     -1.000
E range max (V)     1.000
I Range             Auto
I Range min         Unset
I Range max         Unset
I Range init        Unset
Bandwidth           5
E2 (V)              -0.200
vs.                 Ref
nc cycles           2
Reverse Scan        1
Ef (V)              0.000
vs.                 Eoc

mode	ox/red	error	control changes	counter inc.	time/s	control/V	Ewe/V	<I>/mA	cycle number	(Q-Qo)/C	P/W
2	1	0	1	0	0.000000000000000E+000	-0.0985178	-0.0987221	-7.68693e-05	1	0.0000000E+000	7.5887e-09
2	1	0	0	0	0.111	-0.0929676	-0.0931475	-3.49978e-06	1	2.10606e-09	3.25995e-10
2	1	0	1	0	0.2265	-0.0871924	-0.0874446	3.8693e-05	1	6.95815e-09	-3.38349e-09
2	1	0	1	0	0.3265	-0.0821922	-0.0824174	4.48842e-05	1	1.14285e-08	-3.69924e-09
2	1	0	1	0	0.4265	-0.0771921	-0.0774508	4.88568e-05	1	1.63598e-08	-3.784e-09
2	1	0	1	0	0.5265	-0.0721919	-0.072412	5.28135e-05	1	2.16297e-08	-3.82433e-09
2	1	0	1	0	0.6265	-0.0671917	-0.0673743	5.48502e-05	1	2.71522e-08	-3.69549e-09
2	1	0	1	0	0.7265	-0.0621915	-0.0624256	5.61626e-05	1	3.29308e-08	-3.50599e-09
2	1	0	1	0	0.8265	-0.0571913	-0.0574006	5.79856e-05	1	3.89139e-08	-3.32841e-09
2	1	0	1	0	0.9265	-0.0521912	-0.052329	6.29597e-05	1	4.51126e-08	-3.29462e-09
2	1	0	1	0	1.0265	-0.047191	-0.0474026	6.32194e-05	1	5.15162e-08	-2.99676e-09
2	1	0	1	0	1.1265	-0.0421908	-0.0423776	6.45071e-05	1	5.8129e-08	-2.73365e-09
2	1	0	1	0	1.2265	-0.0371906	-0.0373717	6.53779e-05	1	6.49787e-08	-2.44328e-09
2	1	0	1	0	1.3265	-0.0321905	-0.0323456	6.90397e-05	1	7.20559e-08	-2.23313e-09
2	1	0	1	0	1.4265	-0.0271903	-0.0273546	7.2062e-05	1	7.94103e-08	-1.97122e-09
2	1	0	1	0	1.5265	-0.0221901	-0.0223762	7.61741e-05	1	8.71056e-08	-1.70449e-09
2	1	0	1	0	1.6265	-0.0171899	-0.0174138	7.99737e-05	1	9.51924e-08	-1.39264e-09
2	1	0	1	0	1.7265	-0.0121897	-0.0123898	8.57038e-05	1	1.03763e-07	-1.06186e-09
2	1	0	1	0	1.8265	-0.00718956	-0.00734046	9.23702e-05	1	1.1293e-07	-6.7804e-10
2	1	0	1	0	1.9265	-0.00218938	-0.0023759	0.000101185	1	1.22871e-07	-2.40404e-10
2	1	0	1	0	2.0265	0.00281079	0.00267135	0.000111843	1	1.33846e-07	2.98772e-10
2	1	0	1	0	2.1265	0.00781097	0.00766348	0.000128737	1	1.46127e-07	9.86572e-10
2	1	0	1	0	2.2265	0.0128111	0.0126259	0.000147572	1	1.60122e-07	1.86323e-09
2	1	0	1	0	2.3265	0.0178113	0.0176435	0.000172655	1	1.76315e-07	3.04623e-09
2	1	0	1	0	2.4265	0.0228115	0.0226123	0.000204777	1	1.95352e-07	4.63047e-09
2	1	0	1	0	2.5265	0.0278117	0.0276606	0.000244324	1	2.18002e-07	6.75816e-09
2	1	0	1	0	2.6265	0.0328118	0.0326644	0.000293492	1	2.4513e-07	9.58674e-09
2	1	0	1	0	2.7265	0.037812	0.0376703	0.000352758	1	2.7768e-07	1.32885e-08
2	1	0	1	0	2.8265	0.0428122	0.0426211	0.00042092	1	3.16617e-07	1.79401e-08
2	1	0	1	0	2.9265	0.0478124	0.0476673	0.00049647	1	3.62728e-07	2.36654e-08
2	1	0	1	0	3.0265	0.0528126	0.0526838	0.000576211	1	4.1669e-07	3.0357e-08
2	1	0	1	0	3.1265	0.0578127	0.0576621	0.000655427	1	4.78592e-07	3.77933e-08
2	1	0	1	0	3.2265	0.0628129	0.0626638	0.000729665	1	5.48168e-07	4.57235e-08
2	1	0	1	0	3.3265	0.0678131	0.0677227	0.000794407	1	6.24701e-07	5.37994e-08
2	1	0	1	0	3.4265	0.0728133	0.0726247	0.000843359	1	7.06988e-07	6.12487e-08
2	1	0	1	0	3.5265	0.0778134	0.0776656	0.000879877	1	7.93605e-07	6.83362e-08
2	1	0	1	0	3.6265	0.0828136	0.0826736	0.00089985	1	8.82986e-07	7.43939e-08
2	1	0	1	0	3.7265	0.0878138	0.0876785	0.000908286	1	9.7371e-07	7.96372e-08
2	1	0	1	0	3.8265	0.092814	0.0926801	0.000903044	1	1.06455e-06	8.36942e-08
2	1	0	1	0	3.9265	0.0978141	0.0977295	0.000889463	1	1.15451e-06	8.69268e-08
2	1	0	1	0	4.0265	0.102814	0.102659	0.000870771	1	1.24287e-06	8.93926e-08
2	1	0	1	0	4.1265	0.107814	0.107654	0.000850136	1	1.32922e-06	9.15209e-08
2	1	0	1	0	4.2265	0.112815	0.112661	0.000826885	1	1.41332e-06	9.3158e-08
2	1	0	1	0	4.3265	0.117815	0.117605	0.000802675	1	1.4951e-06	9.43984e-08
2	1	0	1	0	4.4265	0.122815	0.122694	0.000780424	1	1.57456e-06	9.57536e-08
2	1	0	1	0	4.5265	0.127815	0.12766	0.000759404	1	1.65178e-06	9.69455e-08
2	1	0	1	0	4.6265	0.132815	0.132621	0.000738302	1	1.72691e-06	9.79147e-08
2	1	0	1	0	4.7265	0.137816	0.137635	0.00072016	1	1.80007e-06	9.9119e-08
2	1	0	1	0	4.8265	0.142816	0.142696	0.000702681	1	1.87147e-06	1.0027e-07
2	1	0	1	0	4.9265	0.147816	0.14769	0.000687121	1	1.94121e-06	1.01481e-07
2	1	0	1	0	5.0265	0.152816	0.152703	0.00067589	1	2.00947e-06	1.03211e-07
2	1	0	1	0	5.1265	0.157816	0.157666	0.000659904	1	2.07641e-06	1.04044e-07
2	1	0	1	0	5.2265	0.162816	0.16264	0.000647543	1	2.14211e-06	1.05316e-07
2	1	0	1	0	5.3265	0.167817	0.167719	0.000638501	1	2.20672e-06	1.07089e-07
2	1	0	1	0	5.4265	0.172817	0.172705	0.000629683	1	2.27031e-06	1.08749e-07
2	1	0	1	0	5.5265	0.177817	0.177676	0.000620334	1	2.33301e-06	1.10218e-07
2	1	0	1	0	5.6266	0.182815	0.182694	0.000611488	1	2.39497e-06	1.11715e-07
2	1	0	0	0	5.7267	0.187817	0.187679	0.000603546	1	2.45619e-06	1.13273e-07
2	1	0	0	0	5.8267	0.192817	0.192681	0.000600691	1	2.51672e-06	1.15742e-07
2	1	0	0	0	5.9267	0.197818	0.197694	0.000594371	1	2.57667e-06	1.17504e-07
2	1	0	0	0	6.0267	0.202818	0.202694	0.000587608	1	2.63609e-06	1.19105e-07
2	1	0	0	0	6.1267	0.207818	0.207698	0.000584213	1	2.69508e-06	1.2134e-07
2	1	0	0	0	6.2267	0.212818	0.212706	0.000581033	1	2.75368e-06	1.23589e-07
2	1	0	0	0	6.3267	0.217818	0.217707	0.000577854	1	2.81195e-06	1.25803e-07
2	1	0	0	0	6.4267	0.222819	0.222681	0.000575184	1	2.86994e-06	1.28082e-07
2	1	0	0	0	6.5267	0.227819	0.227727	0.000574617	1	2.92768e-06	1.30856e-07
2	1	0	0	0	6.6267	0.232819	0.232696	0.000570927	1	2.98523e-06	1.32852e-07
2	1	0	0	0	6.7267	0.237819	0.237712	0.000569831	1	3.04262e-06	1.35456e-07
2	1	0	0	0	6.8267	0.242819	0.242713	0.000568237	1	3.09989e-06	1.37918e-07
2	1	0	0	0	6.9267	0.247819	0.247724	0.000568405	1	3.15706e-06	1.40807e-07
2	1	0	0	0	7.0267	0.25282	0.252673	0.000568711	1	3.21417e-06	1.43698e-07
2	1	0	0	0	7.1267	0.25782	0.257717	0.000567006	1	3.27134e-06	1.46127e-07
2	1	0	0	0	7.2267	0.26282	0.262763	0.000571256	1	3.32872e-06	1.50105e-07
2	1	0	0	0	7.3267	0.26782	0.267777	0.000576954	1	3.38648e-06	1.54495e-07
2	1	0	0	0	7.4267	0.27282	0.272683	0.000573976	1	3.44424e-06	1.56514e-07
2	1	0	0	0	7.5267	0.27782	0.277723	0.000571496	1	3.5017e-06	1.58718e-07
2	1	0	0	0	7.6267	0.282821	0.282692	0.000570827	1	3.55915e-06	1.61368e-07
2	1	0	0	0	7.7267	0.287821	0.287713	0.000573437	1	3.6167e-06	1.64985e-07
2	1	0	0	0	7.8267	0.292821	0.292699	0.000574771	1	3.67448e-06	1.68235e-07
2	1	0	0	0	7.9267	0.297821	0.297706	0.000578802	1	3.73247e-06	1.72313e-07
2	0	0	1	0	8.0161	0.297721	0.297549	0.000452088	1	3.77924e-06	1.34518e-07
2	0	0	1	0	8.1161	0.292721	0.29258	0.00040781	1	3.82185e-06	1.19317e-07
2	0	0	1	0	8.2161	0.287721	0.28758	0.000379219	1	3.86087e-06	1.09056e-07
2	0	0	1	0	8.3161	0.282721	0.282562	0.000355296	1	3.89726e-06	1.00393e-07
2	0	0	1	0	8.4161	0.27772	0.27758	0.000336532	1	3.93157e-06	9.34146e-08
2	0	0	1	0	8.5161	0.27272	0.27262	0.000319576	1	3.96421e-06	8.71229e-08
2	0	0	1	0	8.6161	0.26772	0.267591	0.000306214	1	3.99543e-06	8.19399e-08
2	0	0	1	0	8.7161	0.26272	0.26256	0.000296431	1	4.02541e-06	7.78311e-08
2	0	0	1	0	8.8161	0.25772	0.257579	0.000287122	1	4.0543e-06	7.39566e-08
2	0	0	1	0	8.9161	0.25272	0.25258	0.000276793	1	4.0822e-06	6.99123e-08
2	0	0	1	0	9.0161	0.247719	0.247548	0.000268741	1	4.10928e-06	6.65263e-08
2	0	0	1	0	9.1161	0.242719	0.242593	0.000261725	1	4.13555e-06	6.34926e-08
2	0	0	1	0	9.2161	0.237719	0.237565	0.000253077	1	4.16109e-06	6.01221e-08
2	0	0	1	0	9.3161	0.232719	0.232563	0.000247435	1	4.18597e-06	5.75442e-08
2	0	0	1	0	9.4161	0.227719	0.227525	0.000241671	1	4.21022e-06	5.49863e-08
2	0	0	1	0	9.5161	0.222719	0.222591	0.000235054	1	4.23388e-06	5.23211e-08
2	0	0	1	0	9.6161	0.217718	0.217545	0.000231271	1	4.25698e-06	5.03119e-08
2	0	0	1	0	9.7161	0.212718	0.212561	0.000226026	1	4.27956e-06	4.80443e-08
2	0	0	1	0	9.8161	0.207718	0.207562	0.000220243	1	4.30169e-06	4.57141e-08
2	0	0	1	0	9.9161	0.202718	0.202546	0.000216103	1	4.32327e-06	4.37707e-08
2	0	0	1	0	10.0161	0.197718	0.197577	0.000211842	1	4.34441e-06	4.18551e-08
2	0	0	1	0	10.1161	0.192717	0.192533	0.000205856	1	4.36509e-06	3.9634e-08
2	0	0	1	0	10.2161	0.187717	0.187568	0.000202251	1	4.38531e-06	3.79358e-08
2	0	0	1	0	10.3162	0.182718	0.182518	0.000198804	1	4.40511e-06	3.62853e-08
2	0	0	0	0	10.4163	0.177717	0.177573	0.000192887	1	4.42446e-06	3.42516e-08
2	0	0	0	0	10.5163	0.172717	0.172574	0.0001892	1	4.44335e-06	3.2651e-08
2	0	0	0	0	10.6163	0.167717	0.167516	0.000183393	1	4.46178e-06	3.07212e-08
2	0	0	0	0	10.7163	0.162716	0.162561	0.000178622	1	4.47974e-06	2.90369e-08
2	0	0	0	0	10.8163	0.157716	0.15755	0.000175302	1	4.49725e-06	2.76189e-08
2	0	0	0	0	10.9163	0.152716	0.152544	0.000166993	1	4.51426e-06	2.54738e-08
2	0	0	0	0	11.0163	0.147716	0.147546	0.000163733	1	4.53076e-06	2.41581e-08
2	0	0	0	0	11.1163	0.142716	0.142516	0.000157729	1	4.54672e-06	2.24789e-08
2	0	0	0	0	11.2163	0.137716	0.137505	0.000154358	1	4.56208e-06	2.1225e-08
2	0	0	0	0	11.3163	0.132715	0.132572	0.000145191	1	4.57682e-06	1.92482e-08
2	0	0	0	0	11.4163	0.127715	0.127561	0.000137359	1	4.59085e-06	1.75216e-08
2	0	0	0	0	11.5163	0.122715	0.122543	0.000130141	1	4.60406e-06	1.59479e-08
2	0	0	0	0	11.6163	0.117715	0.117544	0.000120592	1	4.61634e-06	1.41748e-08
2	0	0	0	0	11.7163	0.112715	0.112594	0.000108005	1	4.62755e-06	1.21607e-08
2	0	0	0	0	11.8163	0.107715	0.107535	9.29549e-05	1	4.6375e-06	9.99592e-09
2	0	0	0	0	11.9163	0.102714	0.102572	7.75908e-05	1	4.64593e-06	7.95861e-09
2	0	0	0	0	12.0163	0.0977141	0.0975424	5.6795e-05	1	4.65253e-06	5.53992e-09
2	0	0	0	0	12.1163	0.0927139	0.0925524	3.29328e-05	1	4.6569e-06	3.04801e-09
2	0	0	0	0	12.2163	0.0877138	0.0875624	3.16722e-06	1	4.65854e-06	2.7733e-10
2	0	0	0	0	12.3163	0.0827136	0.0825268	-3.41974e-05	1	4.65684e-06	-2.8222e-09
2	0	0	0	0	12.4163	0.0777134	0.0775389	-7.81894e-05	1	4.65112e-06	-6.06272e-09
2	0	0	0	0	12.5163	0.0727133	0.072604	-0.0001316	1	4.64051e-06	-9.55469e-09
2	0	0	0	0	12.6163	0.0677131	0.067578	-0.00019415	1	4.62422e-06	-1.31203e-08
2	0	0	0	0	12.7163	0.0627129	0.0625509	-0.000261748	1	4.60139e-06	-1.63726e-08
2	0	0	0	0	12.8163	0.0577127	0.0576107	-0.000336454	1	4.57128e-06	-1.93834e-08
2	0	0	0	0	12.9163	0.0527125	0.0525592	-0.000415407	1	4.53349e-06	-2.18334e-08
2	0	0	0	0	13.0163	0.0477124	0.0475533	-0.000492554	1	4.48783e-06	-2.34226e-08
2	0	0	0	0	13.1163	0.0427122	0.042541	-0.000561189	1	4.43485e-06	-2.38736e-08
2	0	0	0	0	13.2163	0.037712	0.0375521	-0.000619872	1	4.37549e-06	-2.32775e-08
2	0	0	0	0	13.3163	0.0327118	0.0325494	-0.000661944	1	4.31108e-06	-2.15459e-08
2	0	0	0	0	13.4163	0.0277117	0.0275106	-0.000685708	1	4.24336e-06	-1.88642e-08
2	0	0	0	0	13.5163	0.0227115	0.0225301	-0.000694042	1	4.17404e-06	-1.56368e-08
2	0	0	0	0	13.6163	0.0177113	0.0175963	-0.000686639	1	4.10473e-06	-1.20823e-08
2	0	0	0	0	13.7163	0.0127111	0.012513	-0.000669314	1	4.03669e-06	-8.37513e-09
2	0	0	0	0	13.8163	0.00771097	0.00750922	-0.000644657	1	3.97083e-06	-4.84087e-09
2	0	0	0	0	13.9163	0.00271079	0.00250967	-0.000614605	1	3.90771e-06	-1.54246e-09
2	0	0	0	0	14.0163	-0.00228939	-0.00246867	-0.000585105	1	3.84755e-06	1.44443e-09
2	0	0	0	0	14.1163	-0.00728957	-0.00744702	-0.00055388	1	3.79049e-06	4.12475e-09
2	0	0	0	0	14.2163	-0.0122897	-0.0124784	-0.000527108	1	3.73641e-06	6.57746e-09
2	0	0	0	0	14.3163	-0.0172899	-0.0175203	-0.000497935	1	3.6851e-06	8.72398e-09
2	0	0	0	0	14.4163	-0.0222901	-0.0224796	-0.000475035	1	3.63637e-06	1.06786e-08
2	0	0	0	0	14.5163	-0.0272903	-0.0274728	-0.000452466	1	3.58996e-06	1.24305e-08
2	0	0	0	0	14.6163	-0.0322905	-0.0324522	-0.000432672	1	3.54566e-06	1.40411e-08
2	0	0	0	0	14.7163	-0.0372906	-0.0374708	-0.000413031	1	3.50324e-06	1.54766e-08
2	0	0	0	0	14.8163	-0.0422908	-0.0425202	-0.000398942	1	3.4625e-06	1.69631e-08
2	0	0	0	0	14.9163	-0.047291	-0.0474551	-0.000384138	1	3.42329e-06	1.82293e-08
2	0	0	0	0	15.0163	-0.0522912	-0.052462	-0.000375288	1	3.38543e-06	1.96884e-08
2	0	0	0	0	15.1163	-0.0572914	-0.0575029	-0.000359225	1	3.34879e-06	2.06565e-08
2	0	0	0	0	15.2163	-0.0622915	-0.062512	-0.000348397	1	3.31329e-06	2.1779e-08
2	0	0	0	0	15.3163	-0.0672917	-0.0675466	-0.00033942	1	3.27878e-06	2.29267e-08
2	0	0	0	0	15.4163	-0.0722919	-0.0724761	-0.000330964	1	3.24521e-06	2.3987e-08
2	0	0	0	0	15.5163	-0.0772921	-0.0774704	-0.00032227	1	3.21248e-06	2.49664e-08
2	0	0	0	0	15.6163	-0.0822922	-0.082488	-0.000314346	1	3.18053e-06	2.59298e-08
2	0	0	0	0	15.7163	-0.0872924	-0.0874504	-0.000308326	1	3.14928e-06	2.69632e-08
2	0	0	0	0	15.8163	-0.0922926	-0.0924754	-0.000302221	1	3.11869e-06	2.7948e-08
2	0	0	0	0	15.9163	-0.0972928	-0.0975067	-0.000296131	1	3.08871e-06	2.88748e-08
2	0	0	1	0	16.0165	-0.102293	-0.102505	-0.000290074	1	3.05925e-06	2.97341e-08
2	0	0	1	0	16.1165	-0.107293	-0.107499	-0.000285109	1	3.03036e-06	3.0649e-08
2	0	0	1	0	16.2165	-0.112293	-0.112449	-0.000280933	1	3.00196e-06	3.15907e-08
2	0	0	1	0	16.3165	-0.117293	-0.1175	-0.000275469	1	2.97402e-06	3.23676e-08
2	0	0	1	0	16.4165	-0.122294	-0.122488	-0.000271401	1	2.94651e-06	3.32433e-08
2	0	0	1	0	16.5165	-0.127294	-0.127491	-0.00026822	1	2.91939e-06	3.41957e-08
2	0	0	1	0	16.6165	-0.132294	-0.132458	-0.000262836	1	2.89263e-06	3.48148e-08
2	0	0	1	0	16.7165	-0.137294	-0.137472	-0.000261397	1	2.86622e-06	3.59348e-08
2	0	0	1	0	16.8165	-0.142294	-0.142516	-0.00025732	1	2.84012e-06	3.66723e-08
2	0	0	1	0	16.9165	-0.147295	-0.147501	-0.000256166	1	2.81432e-06	3.77848e-08
2	0	0	1	0	17.0165	-0.152295	-0.152507	-0.000253525	1	2.78878e-06	3.86644e-08
2	0	0	1	0	17.1165	-0.157295	-0.157519	-0.00025113	1	2.76344e-06	3.95579e-08
2	0	0	1	0	17.2165	-0.162295	-0.162466	-0.000248396	1	2.73836e-06	4.03559e-08
2	0	0	1	0	17.3165	-0.167295	-0.167512	-0.000247958	1	2.71346e-06	4.15359e-08
2	0	0	1	0	17.4165	-0.172295	-0.172452	-0.000246387	1	2.68871e-06	4.24901e-08
2	0	0	1	0	17.5165	-0.177296	-0.177474	-0.000244729	1	2.66412e-06	4.3433e-08
2	0	0	1	0	17.6165	-0.182296	-0.182461	-0.000242978	1	2.63965e-06	4.4334e-08
2	0	0	1	0	17.7165	-0.187296	-0.187472	-0.000241662	1	2.61528e-06	4.53049e-08
2	0	0	1	0	17.8165	-0.192296	-0.192518	-0.000241717	1	2.59097e-06	4.6535e-08
2	0	0	1	0	17.9165	-0.197296	-0.197465	-0.000241426	1	2.56669e-06	4.76731e-08
2	1	0	0	1	17.9959	-0.198746	-0.198874	-0.000133972	1	2.55006e-06	2.66436e-08
2	1	0	0	1	18.0959	-0.193746	-0.193871	-0.000107229	1	2.53856e-06	2.07886e-08
2	1	0	0	1	18.1959	-0.188746	-0.188941	-9.38644e-05	1	2.52888e-06	1.77349e-08
2	1	0	0	1	18.2959	-0.183746	-0.183838	-8.26584e-05	1	2.52041e-06	1.51958e-08
2	1	0	0	1	18.3959	-0.178746	-0.178911	-7.35544e-05	1	2.51289e-06	1.31597e-08
2	1	0	0	1	18.4959	-0.173746	-0.173887	-6.65295e-05	1	2.50614e-06	1.15686e-08
2	1	0	0	1	18.5959	-0.168745	-0.16891	-5.93597e-05	1	2.50007e-06	1.00265e-08
2	1	0	0	1	18.6959	-0.163745	-0.163896	-5.57509e-05	1	2.49462e-06	9.13735e-09
2	1	0	0	1	18.7959	-0.158745	-0.158903	-4.94784e-05	1	2.48969e-06	7.86226e-09
2	1	0	0	1	18.8959	-0.153745	-0.153836	-4.55818e-05	1	2.48527e-06	7.01214e-09
2	1	0	0	1	18.9959	-0.148745	-0.148969	-4.0567e-05	1	2.48126e-06	6.04324e-09
2	1	0	0	1	19.0959	-0.143744	-0.143858	-3.77937e-05	1	2.47767e-06	5.43691e-09
2	1	0	0	1	19.1959	-0.138744	-0.13893	-3.31569e-05	1	2.47447e-06	4.6065e-09
2	1	0	0	1	19.2959	-0.133744	-0.133868	-2.93557e-05	1	2.47162e-06	3.92978e-09
2	1	0	0	1	19.3959	-0.128744	-0.128898	-2.55526e-05	1	2.46909e-06	3.29368e-09
2	1	0	0	1	19.4959	-0.123744	-0.123908	-2.4143e-05	1	2.46689e-06	2.99152e-09
2	1	0	0	1	19.5959	-0.118744	-0.118883	-2.11455e-05	1	2.46498e-06	2.51384e-09
2	1	0	0	1	19.6959	-0.113743	-0.113881	-1.69467e-05	1	2.46336e-06	1.92992e-09
2	1	0	0	1	19.7959	-0.108743	-0.108872	-1.51485e-05	1	2.462e-06	1.64926e-09
2	1	0	0	1	19.8959	-0.103743	-0.103918	-1.36824e-05	1	2.4609e-06	1.42186e-09
2	1	0	0	1	19.996	-0.0987461	-0.0989578	-1.04795e-05	2	2.46003e-06	1.03703e-09
2	1	0	1	1	20.0961	-0.0937427	-0.0938769	-8.29669e-06	2	2.45941e-06	7.78867e-10
2	1	0	1	1	20.1961	-0.0887425	-0.0888954	-6.98779e-06	2	2.45902e-06	6.21182e-10
2	1	0	1	1	20.2961	-0.0837423	-0.0839064	-4.31876e-06	2	2.45884e-06	3.62372e-10
2	1	0	1	1	20.3961	-0.0787421	-0.0788888	-2.38279e-06	2	2.45888e-06	1.87976e-10
2	1	0	1	1	20.4961	-0.0737419	-0.0738787	-1.05909e-07	2	2.45911e-06	7.82438e-12
2	1	0	1	1	20.5961	-0.0687418	-0.0688823	1.85832e-06	2	2.45955e-06	-1.28006e-10
2	1	0	1	1	20.6961	-0.0637416	-0.0638828	3.15133e-06	2	2.46018e-06	-2.01315e-10
2	1	0	1	1	20.7961	-0.0587414	-0.0589458	4.46552e-06	2	2.461e-06	-2.63224e-10
2	1	0	1	1	20.8961	-0.0537412	-0.053907	8.38692e-06	2	2.462e-06	-4.52114e-10
2	1	0	1	1	20.9961	-0.048741	-0.0488852	9.8124e-06	2	2.46325e-06	-4.79681e-10
2	1	0	1	1	21.0961	-0.0437409	-0.0438718	1.1865e-05	2	2.46469e-06	-5.20538e-10
2	1	0	1	1	21.1961	-0.0387407	-0.0389295	1.38928e-05	2	2.46636e-06	-5.4084e-10
2	1	0	1	1	21.2961	-0.0337405	-0.033842	1.79431e-05	2	2.46827e-06	-6.07231e-10
2	1	0	1	1	21.3961	-0.0287403	-0.0288753	1.92821e-05	2	2.47045e-06	-5.56775e-10
2	1	0	1	1	21.4961	-0.0237402	-0.0238811	2.40001e-05	2	2.47299e-06	-5.73148e-10
2	1	0	1	1	21.5961	-0.01874	-0.0189155	2.71231e-05	2	2.47589e-06	-5.13045e-10
2	1	0	1	1	21.6961	-0.0137398	-0.0138989	3.42682e-05	2	2.47928e-06	-4.76291e-10
2	1	0	1	1	21.7961	-0.00873962	-0.00888031	3.9857e-05	2	2.48325e-06	-3.53943e-10
2	1	0	1	1	21.8961	-0.00373944	-0.00394437	4.81856e-05	2	2.48796e-06	-1.90062e-10
2	1	0	1	1	21.9961	0.00126074	0.00112091	5.95629e-05	2	2.49368e-06	6.67646e-11
2	1	0	1	1	22.0961	0.00626092	0.00615756	7.41516e-05	2	2.50056e-06	4.56593e-10
2	1	0	1	1	22.1961	0.0112611	0.011085	9.07257e-05	2	2.50899e-06	1.0057e-09
2	1	0	1	1	22.2961	0.0162613	0.0161248	0.000112581	2	2.51942e-06	1.81536e-09
2	1	0	1	1	22.3961	0.0212614	0.021083	0.000139699	2	2.53239e-06	2.94528e-09
2	1	0	1	1	22.4961	0.0262616	0.0261473	0.000177442	2	2.54853e-06	4.63961e-09
2	1	0	1	1	22.5961	0.0312618	0.0310938	0.000220038	2	2.5686e-06	6.84183e-09
2	1	0	1	1	22.6961	0.036262	0.0360859	0.000272069	2	2.59338e-06	9.81787e-09
2	1	0	1	1	22.7961	0.0412621	0.0411247	0.000331157	2	2.62376e-06	1.36187e-08
2	1	0	1	1	22.8961	0.0462623	0.0460999	0.000397971	2	2.66045e-06	1.83464e-08
2	1	0	1	1	22.9961	0.0512625	0.0511174	0.000470102	2	2.70413e-06	2.40304e-08
2	1	0	1	1	23.0961	0.0562627	0.0561382	0.000543052	2	2.75512e-06	3.04859e-08
2	1	0	1	1	23.1961	0.0612629	0.0611685	0.000614731	2	2.81337e-06	3.76021e-08
2	1	0	1	1	23.2961	0.066263	0.0662051	0.000679743	2	2.87849e-06	4.50025e-08
2	1	0	1	1	23.3961	0.0712632	0.0711506	0.000735328	2	2.94963e-06	5.2319e-08
2	1	0	1	1	23.4961	0.0762634	0.0761162	0.000776801	2	3.02568e-06	5.91272e-08
2	1	0	1	1	23.5961	0.0812636	0.0811253	0.000806665	2	3.10533e-06	6.5441e-08
2	1	0	1	1	23.6961	0.0862637	0.0861323	0.000822001	2	3.18717e-06	7.08008e-08
2	1	0	1	1	23.7961	0.0912639	0.0911255	0.00082499	2	3.26997e-06	7.51776e-08
2	1	0	1	1	23.8961	0.0962641	0.0961282	0.000818728	2	3.35256e-06	7.87029e-08
2	1	0	1	1	23.9961	0.101264	0.101174	0.000805604	2	3.43413e-06	8.15065e-08
2	1	0	1	1	24.0961	0.106264	0.106118	0.000787258	2	3.51407e-06	8.3542e-08
2	1	0	1	1	24.1961	0.111265	0.111136	0.000764978	2	3.59196e-06	8.50169e-08
2	1	0	1	1	24.2961	0.116265	0.11615	0.000741498	2	3.66762e-06	8.61247e-08
2	1	0	1	1	24.3961	0.121265	0.121087	0.000717026	2	3.74093e-06	8.68223e-08
2	1	0	1	1	24.4961	0.126265	0.126147	0.000694769	2	3.81193e-06	8.76429e-08
2	1	0	1	1	24.5961	0.131265	0.131129	0.000673735	2	3.8807e-06	8.83464e-08
2	1	0	1	1	24.6961	0.136265	0.136155	0.000653243	2	3.94736e-06	8.89425e-08
2	1	0	1	1	24.7961	0.141266	0.141127	0.000634189	2	4.01204e-06	8.95014e-08
2	1	0	1	1	24.8961	0.146266	0.14614	0.00061687	2	4.07487e-06	9.01491e-08
2	1	0	1	1	24.9961	0.151266	0.151128	0.000601476	2	4.13601e-06	9.09001e-08
2	1	0	1	1	25.0961	0.156266	0.156188	0.000585126	2	4.19565e-06	9.13899e-08
2	1	0	1	1	25.1961	0.161266	0.161162	0.000572554	2	4.25382e-06	9.22737e-08
2	1	0	1	1	25.2961	0.166267	0.166132	0.000560797	2	4.31069e-06	9.31666e-08
2	1	0	1	1	25.3961	0.171267	0.171118	0.000548021	2	4.36637e-06	9.37763e-08
2	1	0	1	1	25.4961	0.176267	0.176177	0.000537972	2	4.42095e-06	9.47783e-08
2	1	0	1	1	25.5961	0.181267	0.181177	0.000528938	2	4.47454e-06	9.58313e-08
2	1	0	0	1	25.6963	0.186267	0.186122	0.000519534	2	4.5273e-06	9.66968e-08
2	1	0	0	1	25.7963	0.191267	0.191134	0.000511087	2	4.57914e-06	9.76864e-08
2	1	0	0	1	25.8963	0.196268	0.196107	0.000503746	2	4.63022e-06	9.87884e-08
2	1	0	0	1	25.9963	0.201268	0.201158	0.000497437	2	4.68061e-06	1.00063e-07
2	1	0	0	1	26.0963	0.206268	0.20617	0.000491853	2	4.7304e-06	1.01405e-07
2	1	0	0	1	26.1963	0.211268	0.211126	0.000486411	2	4.77961e-06	1.02694e-07
2	1	0	0	1	26.2963	0.216268	0.216118	0.000480824	2	4.82833e-06	1.03915e-07
2	1	0	0	1	26.3963	0.221268	0.221097	0.000476014	2	4.87659e-06	1.05245e-07
2	1	0	0	1	26.4963	0.226269	0.226156	0.000472193	2	4.92446e-06	1.06789e-07
2	1	0	0	1	26.5963	0.231269	0.231163	0.000470778	2	4.97197e-06	1.08826e-07
2	1	0	0	1	26.6963	0.236269	0.23617	0.000467588	2	5.01916e-06	1.1043e-07
2	1	0	0	1	26.7963	0.241269	0.241131	0.000464092	2	5.0661e-06	1.11907e-07
2	1	0	0	1	26.8963	0.246269	0.246154	0.000461791	2	5.11283e-06	1.13672e-07
2	1	0	0	1	26.9963	0.25127	0.251132	0.000461241	2	5.15939e-06	1.15833e-07
2	1	0	0	1	27.0963	0.25627	0.2562	0.000461045	2	5.20587e-06	1.1812e-07
2	1	0	0	1	27.1963	0.26127	0.261171	0.000460056	2	5.25226e-06	1.20154e-07
2	1	0	0	1	27.2963	0.26627	0.266151	0.000460821	2	5.29863e-06	1.22648e-07
2	1	0	0	1	27.3963	0.27127	0.271196	0.000458442	2	5.34504e-06	1.24328e-07
2	1	0	0	1	27.4963	0.27627	0.276169	0.000462132	2	5.39154e-06	1.27626e-07
2	1	0	0	1	27.5963	0.281271	0.281123	0.000463333	2	5.43818e-06	1.30254e-07
2	1	0	0	1	27.6963	0.286271	0.286152	0.000465401	2	5.485e-06	1.33176e-07
2	1	0	0	1	27.7963	0.291271	0.291192	0.000467669	2	5.53205e-06	1.36182e-07
2	1	0	0	1	27.8963	0.296271	0.296151	0.000471675	2	5.57942e-06	1.39687e-07
2	0	0	0	1	27.9867	0.299221	0.299015	0.000374019	2	5.62095e-06	1.11837e-07
2	0	0	0	1	28.0867	0.294221	0.294081	0.000334418	2	5.65589e-06	9.83459e-08
2	0	0	0	1	28.1867	0.289221	0.289044	0.000311458	2	5.68789e-06	9.00252e-08
2	0	0	0	1	28.2867	0.284221	0.284054	0.000293851	2	5.71788e-06	8.34695e-08
2	0	0	0	1	28.3867	0.279221	0.279069	0.000279006	2	5.74633e-06	7.78617e-08
2	0	0	0	1	28.4867	0.27422	0.274096	0.000267372	2	5.7735e-06	7.32856e-08
2	0	0	0	1	28.5867	0.26922	0.269077	0.000258477	2	5.79959e-06	6.95501e-08
2	0	0	0	1	28.6867	0.26422	0.264071	0.000249341	2	5.82472e-06	6.58437e-08
2	0	0	0	1	28.7867	0.25922	0.259035	0.000241111	2	5.84903e-06	6.24564e-08
2	0	0	0	1	28.8867	0.25422	0.254017	0.000233184	2	5.87257e-06	5.92326e-08
2	0	0	0	1	28.9867	0.249219	0.249091	0.000226871	2	5.89545e-06	5.65115e-08
2	0	0	0	1	29.0867	0.244219	0.244082	0.000222391	2	5.91773e-06	5.42817e-08
2	0	0	0	1	29.1867	0.239219	0.239064	0.00021674	2	5.93942e-06	5.18148e-08
2	0	0	0	1	29.2867	0.234219	0.234042	0.00021186	2	5.9606e-06	4.95841e-08
2	0	0	0	1	29.3867	0.229219	0.229073	0.000205953	2	5.98128e-06	4.71783e-08
2	0	0	0	1	29.4867	0.224219	0.224035	0.000202401	2	6.0015e-06	4.53449e-08
2	0	0	0	1	29.5867	0.219218	0.219054	0.000197351	2	6.02127e-06	4.32304e-08
2	0	0	0	1	29.6867	0.214218	0.214097	0.000193327	2	6.04059e-06	4.13906e-08
2	0	0	0	1	29.7867	0.209218	0.209073	0.000189803	2	6.05952e-06	3.96826e-08
2	0	0	0	1	29.8867	0.204218	0.20407	0.000184949	2	6.07804e-06	3.77425e-08
2	0	0	0	1	29.9867	0.199218	0.199048	0.000181163	2	6.09615e-06	3.60603e-08
2	0	0	0	1	30.0867	0.194218	0.194086	0.000177892	2	6.11389e-06	3.45263e-08
2	0	0	0	1	30.1867	0.189217	0.189085	0.000173531	2	6.13123e-06	3.28121e-08
2	0	0	0	1	30.2867	0.184217	0.184012	0.000169666	2	6.14821e-06	3.12207e-08
2	0	0	1	1	30.3869	0.179217	0.179086	0.000166345	2	6.16484e-06	2.97901e-08
2	0	0	1	1	30.4869	0.174217	0.174065	0.000161556	2	6.18105e-06	2.81214e-08
2	0	0	1	1	30.5869	0.169217	0.169089	0.00015903	2	6.19686e-06	2.68903e-08
2	0	0	1	1	30.6869	0.164216	0.164027	0.000155683	2	6.21227e-06	2.55362e-08
2	0	0	1	1	30.7869	0.159216	0.159071	0.000149589	2	6.22728e-06	2.37953e-08
2	0	0	1	1	30.8869	0.154216	0.154043	0.000145516	2	6.24185e-06	2.24157e-08
2	0	0	1	1	30.9869	0.149216	0.14904	0.000141709	2	6.25595e-06	2.11203e-08
2	0	0	1	1	31.0869	0.144216	0.143993	0.00013626	2	6.26958e-06	1.96204e-08
2	0	0	1	1	31.1869	0.139216	0.139059	0.000130266	2	6.28269e-06	1.81147e-08
2	0	0	1	1	31.2869	0.134215	0.134046	0.000124482	2	6.29523e-06	1.66862e-08
2	0	0	1	1	31.3869	0.129215	0.129029	0.000118767	2	6.30714e-06	1.53244e-08
2	0	0	1	1	31.4869	0.124215	0.124032	0.000110195	2	6.31832e-06	1.36677e-08
2	0	0	1	1	31.5869	0.119215	0.119065	0.00010148	2	6.32868e-06	1.20827e-08
2	0	0	1	1	31.6869	0.114215	0.114045	9.16195e-05	2	6.33807e-06	1.04488e-08
2	0	0	1	1	31.7869	0.109215	0.109068	7.87142e-05	2	6.34633e-06	8.58521e-09
2	0	0	1	1	31.8869	0.104214	0.104005	6.34543e-05	2	6.35324e-06	6.59956e-09
2	0	0	1	1	31.9869	0.0992142	0.0990276	4.60641e-05	2	6.35851e-06	4.56162e-09
2	0	0	1	1	32.0869	0.094214	0.0940366	2.326e-05	2	6.3618e-06	2.18729e-09
2	0	0	1	1	32.1869	0.0892138	0.0890709	-1.78222e-06	2	6.36265e-06	-1.58744e-10
2	0	0	1	1	32.2869	0.0842136	0.0840449	-3.65608e-05	2	6.36054e-06	-3.07275e-09
2	0	0	1	1	32.3869	0.0792135	0.0790517	-7.5017e-05	2	6.3548e-06	-5.93022e-09
2	0	0	1	1	32.4869	0.0742133	0.0740257	-0.000124031	2	6.3447e-06	-9.18147e-09
2	0	0	1	1	32.5869	0.0692131	0.0690855	-0.000177627	2	6.32943e-06	-1.22714e-08
2	0	0	1	1	32.6869	0.0642129	0.0641305	-0.000241631	2	6.30818e-06	-1.54959e-08
2	0	0	1	1	32.7869	0.0592128	0.0590387	-0.000314948	2	6.28013e-06	-1.85941e-08
2	0	0	1	1	32.8869	0.0542126	0.0540402	-0.000389679	2	6.24475e-06	-2.10583e-08
2	0	0	1	1	32.9869	0.0492124	0.0490375	-0.000465544	2	6.20169e-06	-2.28291e-08
2	0	0	1	1	33.0869	0.0442122	0.0440347	-0.000539616	2	6.1511e-06	-2.37619e-08
2	0	0	1	1	33.1869	0.0392121	0.0390447	-0.00060241	2	6.09365e-06	-2.35209e-08
2	0	0	1	1	33.2869	0.0342119	0.0339848	-0.000654448	2	6.03041e-06	-2.22413e-08
2	0	0	1	1	33.3869	0.0292117	0.029087	-0.000688315	2	5.96287e-06	-2.0021e-08
2	0	0	1	1	33.4869	0.0242115	0.0240207	-0.000707894	2	5.89273e-06	-1.70041e-08
2	0	0	1	1	33.5869	0.0192114	0.0190328	-0.000709219	2	5.8216e-06	-1.34984e-08
2	0	0	1	1	33.6869	0.0142112	0.0141011	-0.000698044	2	5.75096e-06	-9.84317e-09
2	0	0	1	1	33.7869	0.00921102	0.0090729	-0.000677634	2	5.68189e-06	-6.1481e-09
2	0	0	1	1	33.8869	0.00421084	0.00401929	-0.000651629	2	5.61521e-06	-2.61908e-09
2	0	0	1	1	33.9869	-0.000789334	-0.000960116	-0.000627496	2	5.55131e-06	6.02469e-10
2	0	0	1	1	34.0869	-0.00578951	-0.00600949	-0.000592854	2	5.49037e-06	3.56275e-09
2	0	0	1	1	34.1869	-0.0107897	-0.011009	-0.000562482	2	5.43248e-06	6.19239e-09
2	0	0	1	1	34.2869	-0.0157899	-0.0159969	-0.00053342	2	5.37744e-06	8.53308e-09
2	0	0	1	1	34.3869	-0.02079	-0.021006	-0.000508333	2	5.3251e-06	1.06781e-08
2	0	0	1	1	34.4869	-0.0257902	-0.0259801	-0.00048551	2	5.27521e-06	1.26136e-08
2	0	0	1	1	34.5869	-0.0307904	-0.0309595	-0.000463871	2	5.22754e-06	1.43612e-08
2	0	0	1	1	34.6869	-0.0357906	-0.035958	-0.000444787	2	5.18187e-06	1.59937e-08
2	0	0	1	1	34.7869	-0.0407908	-0.0409544	-0.000429391	2	5.138e-06	1.75855e-08
2	0	0	1	1	34.8869	-0.0457909	-0.0460048	-0.000412392	2	5.09577e-06	1.8972e-08
2	0	0	1	1	34.9869	-0.0507911	-0.05098	-0.000398554	2	5.055e-06	2.03183e-08
2	0	0	1	1	35.0869	-0.0557913	-0.0560209	-0.00038686	2	5.01551e-06	2.16722e-08
2	0	0	1	1	35.1869	-0.0607915	-0.0609748	-0.000375779	2	4.97722e-06	2.29131e-08
2	0	0	1	1	35.2869	-0.0657917	-0.0660147	-0.000365798	2	4.94002e-06	2.4148e-08
2	0	0	1	1	35.3869	-0.0707918	-0.0710047	-0.000353617	2	4.90383e-06	2.51084e-08
2	0	0	1	1	35.4869	-0.075792	-0.0759799	-0.000346178	2	4.86853e-06	2.63026e-08
2	0	0	1	1	35.5869	-0.0807922	-0.0809911	-0.000338194	2	4.83407e-06	2.73907e-08
2	0	0	1	1	35.6869	-0.0857924	-0.0860161	-0.000330632	2	4.80039e-06	2.84397e-08
2	0	0	1	1	35.7869	-0.0907925	-0.0909308	-0.000323192	2	4.7674e-06	2.93881e-08
2	0	0	1	1	35.8869	-0.0957927	-0.0959908	-0.000317515	2	4.73509e-06	3.04785e-08
2	0	0	0	1	35.9871	-0.100793	-0.100946	-0.000311403	2	4.70333e-06	3.14348e-08
2	0	0	0	1	36.0871	-0.105793	-0.105953	-0.000305514	2	4.67219e-06	3.23701e-08
2	0	0	0	1	36.1871	-0.110793	-0.111005	-0.000299996	2	4.64161e-06	3.33011e-08
2	0	0	0	1	36.2871	-0.115793	-0.115949	-0.00029611	2	4.61151e-06	3.43335e-08
2	0	0	0	1	36.3871	-0.120794	-0.120964	-0.000292632	2	4.58188e-06	3.53979e-08
2	0	0	0	1	36.4871	-0.125794	-0.125975	-0.000286928	2	4.55269e-06	3.61459e-08
2	0	0	0	1	36.5871	-0.130794	-0.13097	-0.000282478	2	4.52392e-06	3.69961e-08
2	0	0	0	1	36.6871	-0.135794	-0.135981	-0.000279098	2	4.49552e-06	3.79519e-08
2	0	0	0	1	36.7871	-0.140794	-0.140999	-0.000276231	2	4.46748e-06	3.89484e-08
2	0	0	0	1	36.8871	-0.145794	-0.145981	-0.000272901	2	4.43977e-06	3.98384e-08
2	0	0	0	1	36.9871	-0.150795	-0.151021	-0.000268663	2	4.41236e-06	4.05738e-08
2	0	0	0	1	37.0871	-0.155795	-0.155975	-0.000267628	2	4.3852e-06	4.17433e-08
2	0	0	0	1	37.1871	-0.160795	-0.160955	-0.000264717	2	4.35833e-06	4.26076e-08
2	0	0	0	1	37.2871	-0.165795	-0.165975	-0.000264678	2	4.33168e-06	4.393e-08
2	0	0	0	1	37.3871	-0.170795	-0.170947	-0.00026051	2	4.30522e-06	4.45333e-08
2	0	0	0	1	37.4871	-0.175796	-0.175953	-0.000259701	2	4.27894e-06	4.56951e-08
2	0	0	0	1	37.5871	-0.180796	-0.180904	-0.000257931	2	4.25281e-06	4.66606e-08
2	0	0	0	1	37.6871	-0.185796	-0.186019	-0.000256663	2	4.2268e-06	4.7744e-08
2	0	0	0	1	37.7871	-0.190796	-0.190997	-0.000255961	2	4.20089e-06	4.88879e-08
2	0	0	0	1	37.8871	-0.195796	-0.195976	-0.000255265	2	4.17503e-06	5.0026e-08
2	1	0	1	0	37.9712	-0.200021	-0.200218	-0.00027642	2	4.15332e-06	5.53442e-08
2	1	0	1	0	38.0665	-0.195246	-0.195383	-0.000126114	2	4.14027e-06	2.46404e-08
2	1	0	1	0	38.1665	-0.190246	-0.190396	-0.000110428	2	4.12884e-06	2.1025e-08
2	1	0	1	0	38.2665	-0.185246	-0.185411	-9.95469e-05	2	4.1187e-06	1.84571e-08
2	1	0	1	0	38.3665	-0.180246	-0.18041	-8.94432e-05	2	4.10956e-06	1.61364e-08
2	1	0	1	0	38.4665	-0.175246	-0.175381	-8.2231e-05	2	4.10126e-06	1.44218e-08
2	1	0	1	0	38.5665	-0.170245	-0.170418	-7.59832e-05	2	4.09365e-06	1.29489e-08
2	1	0	1	0	38.6665	-0.165245	-0.165387	-7.02195e-05	2	4.08667e-06	1.16134e-08
2	1	0	1	0	38.7665	-0.160245	-0.160424	-6.34524e-05	2	4.08024e-06	1.01793e-08
2	1	0	1	0	38.8665	-0.155245	-0.155395	-6.00927e-05	2	4.07431e-06	9.3381e-09
2	1	0	1	0	38.9665	-0.150245	-0.150326	-5.54824e-05	2	4.06887e-06	8.34047e-09
2	1	0	1	0	39.0665	-0.145244	-0.145407	-5.18843e-05	2	4.06384e-06	7.54436e-09
2	1	0	1	0	39.1665	-0.140244	-0.140353	-4.72157e-05	2	4.0592e-06	6.62685e-09
2	1	0	1	0	39.2665	-0.135244	-0.13538	-4.42287e-05	2	4.05493e-06	5.98767e-09
2	1	0	1	0	39.3665	-0.130244	-0.130406	-4.06641e-05	2	4.05101e-06	5.30283e-09
2	1	0	1	0	39.4665	-0.125244	-0.125405	-3.70995e-05	2	4.04743e-06	4.65247e-09
2	1	0	1	0	39.5665	-0.120244	-0.120428	-3.52907e-05	2	4.04416e-06	4.24998e-09
2	1	0	1	0	39.6665	-0.115243	-0.115391	-3.21731e-05	2	4.04119e-06	3.71248e-09
2	1	0	1	0	39.7665	-0.110243	-0.110467	-2.72554e-05	2	4.03851e-06	3.01082e-09
2	1	0	1	0	39.8665	-0.105243	-0.105458	-2.61055e-05	2	4.03609e-06	2.75302e-09
2	1	0	1	0	39.9665	-0.100243	-0.100417	-2.32916e-05	2	4.03394e-06	2.33887e-09
2	1	0	0	0	40.0667	-0.0952427	-0.0953568	-1.94797e-05	3	4.03202e-06	1.85753e-09
2	1	0	0	0	40.1667	-0.0902425	-0.0904283	-1.81708e-05	3	4.03035e-06	1.64316e-09
2	1	0	0	0	40.2667	-0.0852423	-0.0854298	-1.61872e-05	3	4.0289e-06	1.38287e-09
2	1	0	0	0	40.3667	-0.0802422	-0.0804016	-1.39933e-05	3	4.02766e-06	1.12509e-09
2	1	0	0	0	40.4667	-0.075242	-0.0754116	-1.27939e-05	3	4.02667e-06	9.64811e-10
2	1	0	0	0	40.5667	-0.0702418	-0.0703994	-9.77339e-06	3	4.02585e-06	6.88041e-10
2	1	0	0	0	40.6667	-0.0652416	-0.0654305	-9.22051e-06	3	4.02524e-06	6.03303e-10
2	1	0	0	0	40.7667	-0.0602415	-0.0604151	-6.4614e-06	3	4.02484e-06	3.90366e-10
2	1	0	0	0	40.8667	-0.0552413	-0.0554315	-4.77096e-06	3	4.02465e-06	2.64461e-10
2	1	0	0	0	40.9667	-0.0502411	-0.050416	-2.41106e-06	3	4.02469e-06	1.21556e-10
2	1	0	0	0	41.0667	-0.0452409	-0.0454027	1.00515e-06	3	4.02491e-06	-4.56367e-11
2	1	0	0	0	41.1667	-0.0402407	-0.0404084	2.74329e-06	3	4.02538e-06	-1.10852e-10
2	1	0	0	0	41.2667	-0.0352406	-0.0353771	5.23921e-06	3	4.0261e-06	-1.85348e-10
2	1	0	0	0	41.3667	-0.0302404	-0.0303648	7.78282e-06	3	4.0271e-06	-2.36324e-10
2	1	0	0	0	41.4667	-0.0252402	-0.0254013	1.08316e-05	3	4.02842e-06	-2.75137e-10
2	1	0	0	0	41.5667	-0.02024	-0.0203721	1.62174e-05	3	4.03012e-06	-3.30381e-10
2	1	0	0	0	41.6667	-0.0152398	-0.0153884	2.11297e-05	3	4.03227e-06	-3.25153e-10
2	1	0	0	0	41.7667	-0.0102397	-0.0104546	2.76053e-05	3	4.03501e-06	-2.88602e-10
2	1	0	0	0	41.8667	-0.00523949	-0.00540946	3.55647e-05	3	4.03844e-06	-1.92386e-10
2	1	0	0	0	41.9667	-0.000237725	-0.000416272	4.60995e-05	3	4.04279e-06	-1.91899e-11
2	1	0	0	0	42.0667	0.00476086	0.00463628	5.83459e-05	3	4.04826e-06	2.70508e-10
2	1	0	0	0	42.1667	0.00976104	0.00959342	7.35016e-05	3	4.05515e-06	7.05132e-10
2	1	0	0	0	42.2667	0.0147612	0.0146343	9.53519e-05	3	4.0639e-06	1.39541e-09
2	1	0	0	0	42.3667	0.0197614	0.0196074	0.000120691	3	4.07496e-06	2.36643e-09
2	1	0	0	0	42.4667	0.0247616	0.0245857	0.000154932	3	4.08893e-06	3.80912e-09
2	1	0	0	0	42.5667	0.0297617	0.0295969	0.000193147	3	4.1065e-06	5.71654e-09
2	1	0	0	0	42.6667	0.0347619	0.0346113	0.000239345	3	4.12838e-06	8.28404e-09
2	1	0	0	0	42.7667	0.0397621	0.039613	0.00029637	3	4.15542e-06	1.17401e-08
2	1	0	0	0	42.8667	0.0447623	0.0446401	0.000356998	3	4.18834e-06	1.59364e-08
2	1	0	0	0	42.9667	0.0497625	0.0495983	0.000425785	3	4.22779e-06	2.11182e-08
2	1	0	0	0	43.0667	0.0547626	0.0546127	0.000496299	3	4.27428e-06	2.71042e-08
2	1	0	0	0	43.1667	0.0597628	0.0596673	0.000567619	3	4.32784e-06	3.38683e-08
2	1	0	0	0	43.2667	0.064763	0.0646573	0.000634111	3	4.38825e-06	4.1e-08
2	1	0	0	0	43.3667	0.0697632	0.0696028	0.000692597	3	4.45491e-06	4.82067e-08
2	1	0	0	0	43.4667	0.0747633	0.0746384	0.000738228	3	4.52687e-06	5.51002e-08
2	1	0	0	0	43.5667	0.0797635	0.0795913	0.000773803	3	4.60297e-06	6.1588e-08
2	1	0	0	0	43.6667	0.0847637	0.0846068	0.000796353	3	4.68187e-06	6.73769e-08
2	1	0	0	0	43.7667	0.0897639	0.0896158	0.000803786	3	4.7623e-06	7.2032e-08
2	1	0	0	0	43.8667	0.094764	0.0946408	0.000803885	3	4.84311e-06	7.60804e-08
2	1	0	0	0	43.9667	0.0997642	0.0996075	0.000794313	3	4.92335e-06	7.91196e-08
2	1	0	0	0	44.0667	0.104764	0.104655	0.000778025	3	5.0023e-06	8.1424e-08
2	1	0	0	0	44.1667	0.109765	0.109704	0.000758528	3	5.07943e-06	8.32136e-08
2	1	0	0	0	44.2667	0.114765	0.114688	0.000736379	3	5.15447e-06	8.44536e-08
2	1	0	0	0	44.3667	0.119765	0.119592	0.000713424	3	5.22725e-06	8.53198e-08
2	1	0	0	0	44.4667	0.124765	0.124609	0.000691069	3	5.29773e-06	8.61137e-08
2	1	0	0	0	44.5667	0.129765	0.129642	0.000668943	3	5.36597e-06	8.6723e-08
2	1	0	0	0	44.6667	0.134765	0.13465	0.000646985	3	5.43202e-06	8.71165e-08
2	1	0	0	0	44.7667	0.139766	0.139563	0.000626965	3	5.49605e-06	8.75008e-08
2	1	0	0	0	44.8667	0.144766	0.144613	0.00061011	3	5.55817e-06	8.82298e-08
2	1	0	0	0	44.9667	0.149766	0.149662	0.000593096	3	5.61852e-06	8.87641e-08
2	1	0	0	0	45.0667	0.154766	0.15465	0.000577974	3	5.67728e-06	8.93838e-08
2	1	0	0	0	45.1667	0.159766	0.159631	0.000561732	3	5.7345e-06	8.96696e-08
2	1	0	0	0	45.2667	0.164766	0.164637	0.000549944	3	5.79034e-06	9.0541e-08
2	1	0	0	0	45.3667	0.169767	0.169635	0.000537721	3	5.84493e-06	9.12164e-08
2	1	0	0	0	45.4667	0.174767	0.174681	0.000525476	3	5.89836e-06	9.17909e-08
2	1	0	0	0	45.5667	0.179767	0.179599	0.000517271	3	5.95071e-06	9.29015e-08
2	1	0	1	0	45.6669	0.184767	0.184627	0.000506322	3	6.00216e-06	9.34808e-08
2	1	0	1	0	45.7669	0.189767	0.189617	0.000497781	3	6.05262e-06	9.43879e-08
2	1	0	1	0	45.8669	0.194768	0.194637	0.000489391	3	6.10225e-06	9.52536e-08
2	1	0	1	0	45.9669	0.199768	0.199627	0.000482714	3	6.15113e-06	9.63627e-08
2	1	0	1	0	46.0669	0.204768	0.204629	0.000475217	3	6.19932e-06	9.72431e-08
2	1	0	1	0	46.1669	0.209768	0.209593	0.0004686	3	6.24687e-06	9.82155e-08
2	1	0	1	0	46.2669	0.214768	0.214674	0.00046476	3	6.29385e-06	9.97721e-08
2	1	0	1	0	46.3669	0.219768	0.219691	0.00045897	3	6.34031e-06	1.00832e-07
2	1	0	1	0	46.4669	0.224769	0.224609	0.000454547	3	6.38628e-06	1.02095e-07
2	1	0	1	0	46.5669	0.229769	0.229653	0.000449327	3	6.43182e-06	1.03189e-07
2	1	0	1	0	46.6669	0.234769	0.234609	0.000446831	3	6.47697e-06	1.04831e-07
2	1	0	1	0	46.7669	0.239769	0.239653	0.000443519	3	6.52176e-06	1.06291e-07
2	1	0	1	0	46.8669	0.244769	0.244641	0.000440919	3	6.56626e-06	1.07867e-07
2	1	0	1	0	46.9669	0.249769	0.249678	0.000437467	3	6.61049e-06	1.09226e-07
2	1	0	1	0	47.0669	0.25477	0.254671	0.000437287	3	6.6545e-06	1.11364e-07
2	1	0	1	0	47.1669	0.25977	0.259668	0.000435996	3	6.69838e-06	1.13214e-07
2	1	0	1	0	47.2669	0.26477	0.264667	0.00043436	3	6.74212e-06	1.14961e-07
2	1	0	1	0	47.3669	0.26977	0.269663	0.000433993	3	6.78579e-06	1.17032e-07
2	1	0	1	0	47.4669	0.27477	0.274652	0.000432318	3	6.82941e-06	1.18737e-07
2	1	0	1	0	47.5669	0.279771	0.279611	0.000435371	3	6.87308e-06	1.21735e-07
2	1	0	1	0	47.6669	0.284771	0.284639	0.000436139	3	6.91684e-06	1.24142e-07
2	1	0	1	0	47.7669	0.289771	0.289645	0.000436418	3	6.96074e-06	1.26407e-07
2	1	0	1	0	47.8669	0.294771	0.294614	0.000438236	3	7.00482e-06	1.2911e-07
2	1	0	1	0	47.9664	0.299746	0.299647	0.000443213	3	7.04892e-06	1.32808e-07
2	0	0	1	0	48.0573	0.295721	0.295563	0.00031527	3	7.07949e-06	9.31821e-08
2	0	0	1	0	48.1573	0.290721	0.290567	0.000293602	3	7.10962e-06	8.53108e-08
2	0	0	1	0	48.2573	0.285721	0.285555	0.000276708	3	7.13788e-06	7.90154e-08
2	0	0	1	0	48.3573	0.280721	0.280543	0.000262511	3	7.16469e-06	7.36457e-08
2	0	0	1	0	48.4573	0.27572	0.275538	0.000253139	3	7.19033e-06	6.97494e-08
2	0	0	1	0	48.5573	0.27072	0.270573	0.00024363	3	7.21498e-06	6.59197e-08
2	0	0	1	0	48.6573	0.26572	0.265542	0.000234595	3	7.23875e-06	6.2295e-08
2	0	0	1	0	48.7573	0.26072	0.260517	0.000228943	3	7.26178e-06	5.96436e-08
2	0	0	1	0	48.8573	0.25572	0.255596	0.000221522	3	7.28413e-06	5.66202e-08
2	0	0	1	0	48.9573	0.25072	0.250565	0.000216705	3	7.30582e-06	5.42987e-08
2	0	0	1	0	49.0573	0.245719	0.245603	0.000210998	3	7.32697e-06	5.18216e-08
2	0	0	1	0	49.1573	0.240719	0.24051	0.000206165	3	7.34758e-06	4.95847e-08
2	0	0	1	0	49.2573	0.235719	0.235566	0.000201182	3	7.36772e-06	4.73917e-08
2	0	0	1	0	49.3573	0.230719	0.230535	0.000195593	3	7.38739e-06	4.50911e-08
2	0	0	1	0	49.4573	0.225719	0.225545	0.000191976	3	7.40661e-06	4.32991e-08
2	0	0	1	0	49.5573	0.220718	0.220579	0.000186915	3	7.4254e-06	4.12296e-08
2	0	0	1	0	49.6573	0.215718	0.215484	0.000182151	3	7.44379e-06	3.92507e-08
2	0	0	1	0	49.7573	0.210718	0.210568	0.000180051	3	7.46179e-06	3.79128e-08
2	0	0	1	0	49.8573	0.205718	0.205603	0.000176527	3	7.47941e-06	3.62944e-08
2	0	0	1	0	49.9573	0.200718	0.200528	0.000173612	3	7.49665e-06	3.48141e-08
2	0	0	1	0	50.0573	0.195718	0.195581	0.000168677	3	7.51354e-06	3.29899e-08
2	0	0	1	0	50.1573	0.190717	0.19057	0.000164128	3	7.53007e-06	3.1278e-08
2	0	0	1	0	50.2573	0.185717	0.185548	0.000162431	3	7.54624e-06	3.01386e-08
2	0	0	0	0	50.3575	0.180717	0.180577	0.000157948	3	7.56209e-06	2.85217e-08
2	0	0	0	0	50.4575	0.175717	0.175519	0.000153657	3	7.57751e-06	2.69697e-08
2	0	0	0	0	50.5575	0.170717	0.170634	0.000150834	3	7.59258e-06	2.57374e-08
2	0	0	0	0	50.6575	0.165717	0.165617	0.000146697	3	7.60726e-06	2.42956e-08
2	0	0	0	0	50.7575	0.160716	0.160606	0.00014105	3	7.62154e-06	2.26535e-08
2	0	0	0	0	50.8575	0.155716	0.155539	0.000138927	3	7.63542e-06	2.16085e-08
2	0	0	0	0	50.9575	0.150716	0.150535	0.000133729	3	7.64883e-06	2.01308e-08
2	0	0	0	0	51.0575	0.145716	0.145543	0.000129083	3	7.6618e-06	1.87871e-08
2	0	0	0	0	51.1575	0.140716	0.140555	0.000123854	3	7.67427e-06	1.74083e-08
2	0	0	0	0	51.2575	0.135715	0.135519	0.000118532	3	7.6862e-06	1.60634e-08
2	0	0	0	0	51.3575	0.130715	0.130561	0.000112279	3	7.69751e-06	1.46593e-08
2	0	0	0	0	51.4575	0.125715	0.125521	0.000103585	3	7.70815e-06	1.30021e-08
2	0	0	0	0	51.5575	0.120715	0.120556	9.44775e-05	3	7.71801e-06	1.13898e-08
2	0	0	0	0	51.6575	0.115715	0.115551	8.48595e-05	3	7.72698e-06	9.80558e-09
2	0	0	0	0	51.7575	0.110715	0.1106	7.52927e-05	3	7.73489e-06	8.32737e-09
2	0	0	0	0	51.8575	0.105714	0.105516	6.08754e-05	3	7.74155e-06	6.4233e-09
2	0	0	0	0	51.9575	0.100714	0.100507	4.40787e-05	3	7.74671e-06	4.4302e-09
2	0	0	0	0	52.0575	0.0957141	0.0955218	2.39506e-05	3	7.75005e-06	2.28781e-09
2	0	0	0	0	52.1575	0.0907139	0.0905519	9.54605e-08	3	7.75116e-06	8.64414e-12
2	0	0	0	0	52.2575	0.0857137	0.0855503	-2.99191e-05	3	7.74952e-06	-2.55959e-09
2	0	0	0	0	52.3575	0.0807135	0.0805507	-6.69923e-05	3	7.7446e-06	-5.39628e-09
2	0	0	0	0	52.4575	0.0757134	0.0755681	-0.000112424	3	7.73566e-06	-8.49567e-09
2	0	0	0	0	52.5575	0.0707132	0.0705824	-0.000162086	3	7.72195e-06	-1.14404e-08
2	0	0	0	0	52.6575	0.065713	0.0655934	-0.000221441	3	7.70269e-06	-1.45251e-08
2	0	0	0	0	52.7575	0.0607128	0.0605229	-0.000288883	3	7.67706e-06	-1.7484e-08
2	0	0	0	0	52.8575	0.0557127	0.0555063	-0.000362025	3	7.64444e-06	-2.00947e-08
2	0	0	0	0	52.9575	0.0507125	0.0505958	-0.000436012	3	7.60438e-06	-2.20604e-08
2	0	0	0	0	53.0575	0.0457123	0.0455062	-0.0005114	3	7.55671e-06	-2.32719e-08
2	0	0	0	0	53.1575	0.0407121	0.0405703	-0.000578313	3	7.50197e-06	-2.34623e-08
2	0	0	0	0	53.2575	0.035712	0.035487	-0.000634956	3	7.44098e-06	-2.25326e-08
2	0	0	0	0	53.3575	0.0307118	0.030551	-0.000676385	3	7.37505e-06	-2.06642e-08
2	0	0	0	0	53.4575	0.0257116	0.0255165	-0.000702298	3	7.30573e-06	-1.79202e-08
2	0	0	0	0	53.5575	0.0207114	0.0205286	-0.000712866	3	7.23466e-06	-1.46341e-08
2	0	0	0	0	53.6575	0.0157112	0.0155534	-0.000709316	3	7.16339e-06	-1.10323e-08
2	0	0	0	0	53.7575	0.0107111	0.0105666	-0.00069135	3	7.09318e-06	-7.30523e-09
2	0	0	0	0	53.8575	0.0057109	0.00554163	-0.000669194	3	7.02494e-06	-3.70842e-09
2	0	0	0	0	53.9575	0.000710719	0.000580245	-0.000640633	3	6.9593e-06	-3.71724e-10
2	0	0	0	0	54.0575	-0.00428946	-0.00445747	-0.000610899	3	6.89647e-06	2.72306e-09
2	0	0	0	0	54.1575	-0.00928964	-0.00951002	-0.000582536	3	6.83665e-06	5.53993e-09
2	0	0	0	0	54.2575	-0.0142898	-0.0144555	-0.000552928	3	6.77973e-06	7.99285e-09
2	0	0	0	0	54.3575	-0.01929	-0.0194731	-0.000526872	3	6.72556e-06	1.02598e-08
2	0	0	0	0	54.4575	-0.0242902	-0.0245002	-0.000502971	3	6.67393e-06	1.23229e-08
2	0	0	0	0	54.5575	-0.0292904	-0.029487	-0.000480848	3	6.62458e-06	1.41788e-08
2	0	0	0	0	54.6575	-0.0342905	-0.0344611	-0.000461213	3	6.57735e-06	1.58939e-08
2	0	0	0	0	54.7575	-0.0392907	-0.0394596	-0.000444789	3	6.53198e-06	1.75512e-08
2	0	0	0	0	54.8575	-0.0442909	-0.0445122	-0.000428664	3	6.48829e-06	1.90807e-08
2	0	0	0	0	54.9575	-0.0492911	-0.0494587	-0.000413372	3	6.44613e-06	2.04448e-08
2	0	0	0	0	55.0575	-0.0542912	-0.0545282	-0.000399198	3	6.4053e-06	2.17676e-08
2	0	0	0	0	55.1575	-0.0592914	-0.0594705	-0.000388277	3	6.36575e-06	2.3091e-08
2	0	0	0	0	55.2575	-0.0642916	-0.064468	-0.000376839	3	6.32732e-06	2.42941e-08
2	0	0	0	0	55.3575	-0.0692918	-0.0695025	-0.000368574	3	6.28991e-06	2.56168e-08
2	0	0	0	0	55.4575	-0.074292	-0.0744777	-0.000358486	3	6.25344e-06	2.66992e-08
2	0	0	0	0	55.5575	-0.0792921	-0.0795175	-0.000350751	3	6.21785e-06	2.78909e-08
2	0	0	0	0	55.6575	-0.0842923	-0.084499	-0.000343313	3	6.18306e-06	2.90096e-08
2	0	0	0	0	55.7575	-0.0892925	-0.0894933	-0.000335322	3	6.14902e-06	3.00091e-08
2	0	0	0	0	55.8575	-0.0942927	-0.0945161	-0.000329163	3	6.11566e-06	3.11112e-08
2	0	0	1	0	55.9577	-0.0992928	-0.0994987	-0.00032345	3	6.08289e-06	3.21829e-08
2	0	0	1	0	56.0577	-0.104293	-0.10448	-0.000316478	3	6.05079e-06	3.30657e-08
2	0	0	1	0	56.1577	-0.109293	-0.109506	-0.000311126	3	6.01924e-06	3.40702e-08
2	0	0	1	0	56.2577	-0.114293	-0.11446	-0.000304846	3	5.98823e-06	3.48928e-08
2	0	0	1	0	56.3577	-0.119294	-0.119451	-0.000300453	3	5.95769e-06	3.58895e-08
2	0	0	1	0	56.4577	-0.124294	-0.12452	-0.000299233	3	5.92761e-06	3.72604e-08
2	0	0	1	0	56.5577	-0.129294	-0.129552	-0.000293575	3	5.89797e-06	3.80333e-08
2	0	0	1	0	56.6577	-0.134294	-0.134486	-0.000288694	3	5.86874e-06	3.88254e-08
2	0	0	1	0	56.7577	-0.139294	-0.139473	-0.000285038	3	5.83988e-06	3.97551e-08
2	0	0	1	0	56.8577	-0.144294	-0.144471	-0.000282261	3	5.81137e-06	4.07786e-08
2	0	0	1	0	56.9577	-0.149295	-0.149457	-0.000278156	3	5.7832e-06	4.15724e-08
2	0	0	1	0	57.0577	-0.154295	-0.154502	-0.000276201	3	5.75532e-06	4.26736e-08
2	0	0	1	0	57.1577	-0.159295	-0.159499	-0.000273569	3	5.72769e-06	4.36338e-08
2	0	0	1	0	57.2577	-0.164295	-0.164529	-0.000270145	3	5.70032e-06	4.44467e-08
2	0	0	1	0	57.3577	-0.169295	-0.169548	-0.00026836	3	5.67317e-06	4.54997e-08
2	0	0	1	0	57.4577	-0.174296	-0.174457	-0.000267385	3	5.64623e-06	4.66471e-08
2	0	0	1	0	57.5577	-0.179296	-0.17949	-0.000266738	3	5.61944e-06	4.78769e-08
2	0	0	1	0	57.6577	-0.184296	-0.184529	-0.000265327	3	5.5928e-06	4.89605e-08
2	0	0	1	0	57.7577	-0.189296	-0.189517	-0.000264368	3	5.56628e-06	5.01022e-08
2	0	0	1	0	57.8577	-0.194296	-0.194512	-0.000261264	3	5.53984e-06	5.08191e-08
2	0	0	1	0	57.9577	-0.199296	-0.199503	-0.000262103	3	5.51347e-06	5.22905e-08
2	1	0	0	1	58.0371	-0.196746	-0.19689	-0.00013629	3	5.50023e-06	2.68341e-08
2	1	0	0	1	58.1371	-0.191746	-0.191938	-0.000117981	3	5.48788e-06	2.26451e-08
2	1	0	0	1	58.2371	-0.186746	-0.186919	-0.000107346	3	5.47697e-06	2.00649e-08
2	1	0	0	1	58.3371	-0.181746	-0.181896	-9.69168e-05	3	5.46711e-06	1.76288e-08
2	1	0	0	1	58.4371	-0.176746	-0.176927	-8.88267e-05	3	5.45813e-06	1.57158e-08
2	1	0	0	1	58.5371	-0.171745	-0.171944	-8.17063e-05	3	5.44987e-06	1.4049e-08
2	1	0	0	1	58.6371	-0.166745	-0.166893	-7.67127e-05	3	5.44225e-06	1.28028e-08
2	1	0	0	1	58.7371	-0.161745	-0.161882	-7.0442e-05	3	5.4352e-06	1.14033e-08
2	1	0	0	1	58.8371	-0.156745	-0.156893	-6.53266e-05	3	5.42868e-06	1.02493e-08
2	1	0	0	1	58.9371	-0.151745	-0.151891	-6.17584e-05	3	5.42268e-06	9.38056e-09
2	1	0	0	1	59.0371	-0.146745	-0.146916	-5.5675e-05	3	5.41707e-06	8.17954e-09
2	1	0	0	1	59.1371	-0.141744	-0.141914	-5.18401e-05	3	5.41185e-06	7.35685e-09
2	1	0	0	1	59.2371	-0.136744	-0.13685	-4.84062e-05	3	5.40702e-06	6.6244e-09
2	1	0	0	1	59.3371	-0.131744	-0.131929	-4.5686e-05	3	5.40254e-06	6.02731e-09
2	1	0	0	1	59.4371	-0.126744	-0.126942	-4.32554e-05	3	5.39842e-06	5.49094e-09
2	1	0	0	1	59.5371	-0.121744	-0.121901	-3.8276e-05	3	5.39461e-06	4.66589e-09
2	1	0	0	1	59.6371	-0.116743	-0.116852	-3.67056e-05	3	5.3911e-06	4.28912e-09
2	1	0	0	1	59.7371	-0.111743	-0.111958	-3.42203e-05	3	5.3879e-06	3.83125e-09
2	1	0	0	1	59.8371	-0.106743	-0.106861	-3.1175e-05	3	5.38498e-06	3.33141e-09
2	1	0	0	1	59.9371	-0.101743	-0.101906	-2.75433e-05	3	5.38231e-06	2.80684e-09
2	1	0	1	1	60.0373	-0.0967428	-0.0969343	-2.69392e-05	3	5.37988e-06	2.61133e-09
2	1	0	1	1	60.1373	-0.0917426	-0.0919262	-2.32528e-05	3	5.37772e-06	2.13754e-09
2	1	0	1	1	60.2373	-0.0867424	-0.0869065	-2.07233e-05	3	5.37577e-06	1.80099e-09
2	1	0	1	1	60.3373	-0.0817422	-0.0819399	-1.86301e-05	3	5.37405e-06	1.52655e-09
2	1	0	1	1	60.4373	-0.076742	-0.0769477	-1.74713e-05	3	5.37253e-06	1.34438e-09
2	1	0	1	1	60.5373	-0.0717419	-0.0719323	-1.48889e-05	3	5.37122e-06	1.07099e-09
2	1	0	1	1	60.6373	-0.0667417	-0.0669476	-1.3308e-05	3	5.37014e-06	8.90935e-10
2	1	0	1	1	60.6584	-0.0656666	-0.0659171	-4.9529e-06	3	5.36995e-06	3.26481e-10