File: AutoAnalysis Examples/EC/C000A-20ppb-B_C01.mpt
EC-Lab ASCII FILE
Nb header lines : 59

Cyclic Voltammetry

Run on channel : 1 (SN 22398)
User :
CE vs. WE compliance from -10 V to 10 V
Electrode connection : standard
Ewe ctrl range : min = -1.00 V, max = 1.00 V
Safety Limits :
	Ewe min = -2.00 V
	Ewe max = 2.00 V
	|I| = 50.000 mA
	for t > 10 ms
Acquisition started on : 11/21/2018 11:45:13
Technique started on : 11/21/2018 11:45:13
Saved on :
	File : C000A-20ppb-B_C01.mpr
	Directory : \\ECCOMPUTER\Users\Lab User\Google Drive\Electrochemical Data\EC-Lab\Data\FREDsense\Tim\2018.11.21 - EC comparison to High Throughput\
	Host : 172.16.1.30
Device : SP-50 (SN 0301030103010301)
Address : USB
EC-Lab for windows v11.02 (software)
Internet server v11.02 (firmware)
Command interpretor v11.02 (firmware)
Electrode material : Au/Pd
Initial state :
Electrolyte : NaCl (0.2M)
Comments : Fe(CN)63-/Fe(CN)64- 5.10-3 M
Reference electrode : SCE Saturated Calomel Electrode (0.241 V)
Electrode surface area : 0.001 cm²
Characteristic mass : 0.001 g
Equivalent Weight : 0.000 g/eq.
Density : 0.000 g/cm3
Cycle Definition : Charge/Discharge alternance
Ei (V)              -0.100
vs.                 Ref
dE/dt               50.000
dE/dt unit          mV/s
E1 (V)              0.300
vs.                 Ref
Step percent        50
N                   10
E range min (V)     -1.000
E range max (V)     1.000
I Range             Auto
I Range min         Unset
I Range max         Unset
I Range init        Unset
Bandwidth           5
E2 (V)              -0.200
vs.                 Ref
nc cycles           2
Reverse Scan        1
Ef (V)              0.000
vs.                 Eoc

mode	ox/red	error	control changes	counter inc.	time/s	control/V	Ewe/V	<I>/mA	cycle number	(Q-Qo)/C	P/W
2	1	0	1	0	0.000000000000000E+000	-0.0984851	-0.0987932	-7.8141e-05	1	0.0000000E+000	7.71981e-09
2	1	0	0	0	0.111	-0.0929349	-0.0930249	4.00546e-06	1	1.69563e-09	-3.72607e-10
2	1	0	1	0	0.2265	-0.0871597	-0.0872538	4.72017e-05	1	6.22243e-09	-4.11853e-09
2	1	0	1	0	0.3265	-0.0821595	-0.0822786	5.03371e-05	1	1.14303e-08	-4.14166e-09
2	1	0	1	0	0.4265	-0.0771593	-0.0773035	5.55002e-05	1	1.7093e-08	-4.29036e-09
2	1	0	1	0	0.5265	-0.0721591	-0.0723251	5.93262e-05	1	2.30274e-08	-4.29078e-09
2	1	0	1	0	0.6265	-0.0671589	-0.0673001	6.07323e-05	1	2.92483e-08	-4.08729e-09
2	1	0	1	0	0.7265	-0.0621587	-0.0622571	6.23291e-05	1	3.57241e-08	-3.88043e-09
2	1	0	1	0	0.8265	-0.0571585	-0.0573509	6.57736e-05	1	4.24107e-08	-3.77217e-09
2	1	0	1	0	0.9265	-0.0521583	-0.0523015	7.02991e-05	1	4.9344e-08	-3.67675e-09
2	1	0	1	0	1.0265	-0.0471581	-0.0472966	7.14826e-05	1	5.6487e-08	-3.38088e-09
2	1	0	1	0	1.1265	-0.0421579	-0.0422875	7.21167e-05	1	6.38528e-08	-3.04964e-09
2	1	0	1	0	1.2265	-0.0371577	-0.0372848	7.51337e-05	1	7.14708e-08	-2.80135e-09
2	1	0	1	0	1.3265	-0.0321575	-0.0322609	7.79458e-05	1	7.9351e-08	-2.5146e-09
2	1	0	1	0	1.4265	-0.0271573	-0.0272741	8.03728e-05	1	8.75247e-08	-2.19209e-09
2	1	0	1	0	1.5265	-0.022157	-0.0223105	8.28069e-05	1	9.60589e-08	-1.84747e-09
2	1	0	1	0	1.6265	-0.0171568	-0.0172845	9.05614e-05	1	1.05006e-07	-1.56531e-09
2	1	0	1	0	1.7265	-0.0121566	-0.0122489	9.5555e-05	1	1.14473e-07	-1.17044e-09
2	1	0	1	0	1.8265	-0.00715643	-0.00725359	0.000102988	1	1.2456e-07	-7.47033e-10
2	1	0	1	0	1.9265	-0.00215623	-0.00226147	0.000110172	1	1.35474e-07	-2.4915e-10
2	1	0	1	0	2.0265	0.00284397	0.0027296	0.000121648	1	1.47492e-07	3.32051e-10
2	1	0	1	0	2.1265	0.00784417	0.00779699	0.000139559	1	1.60852e-07	1.08814e-09
2	1	0	1	0	2.2265	0.0128444	0.0127806	0.000159612	1	1.76001e-07	2.03994e-09
2	1	0	1	0	2.3265	0.0178446	0.0176848	0.000185853	1	1.93495e-07	3.28677e-09
2	1	0	1	0	2.4265	0.0228448	0.0227119	0.000219992	1	2.14018e-07	4.99644e-09
2	1	0	1	0	2.5265	0.027845	0.0277019	0.000264076	1	2.38441e-07	7.31541e-09
2	1	0	1	0	2.6265	0.0328452	0.0326919	0.000318373	1	2.67663e-07	1.04082e-08
2	1	0	1	0	2.7265	0.0378454	0.0376989	0.000383008	1	3.02735e-07	1.4439e-08
2	1	0	1	0	2.8265	0.0428456	0.0427249	0.000454556	1	3.44681e-07	1.94208e-08
2	1	0	1	0	2.9265	0.0478458	0.0477202	0.000534762	1	3.94333e-07	2.5519e-08
2	1	0	1	0	3.0265	0.052846	0.0527516	0.000618756	1	4.52334e-07	3.26404e-08
2	1	0	1	0	3.1265	0.0578462	0.0577384	0.000700392	1	5.1861e-07	4.04395e-08
2	1	0	1	0	3.2265	0.0628464	0.062721	0.000775033	1	5.92697e-07	4.86108e-08
2	1	0	1	0	3.3265	0.0678466	0.0677237	0.000836844	1	6.73578e-07	5.66742e-08
2	1	0	1	0	3.4265	0.0728468	0.0727402	0.000879603	1	7.5973e-07	6.39825e-08
2	1	0	1	0	3.5265	0.077847	0.0777133	0.000908044	1	8.49472e-07	7.05671e-08
2	1	0	1	0	3.6265	0.0828472	0.0827446	0.000916541	1	9.41056e-07	7.58388e-08
2	1	0	1	0	3.7265	0.0878474	0.0877272	0.000915242	1	1.03296e-06	8.02916e-08
2	1	0	1	0	3.8265	0.0928476	0.0927501	0.000901003	1	1.12397e-06	8.35681e-08
2	1	0	1	0	3.9265	0.0978478	0.0976945	0.000880215	1	1.21321e-06	8.59921e-08
2	1	0	1	0	4.0265	0.102848	0.102724	0.000854794	1	1.30013e-06	8.78076e-08
2	1	0	1	0	4.1265	0.107848	0.107726	0.000828201	1	1.38451e-06	8.92192e-08
2	1	0	1	0	4.2265	0.112848	0.112732	0.00080332	1	1.46624e-06	9.05601e-08
2	1	0	1	0	4.3265	0.117849	0.117703	0.000776976	1	1.54541e-06	9.14526e-08
2	1	0	1	0	4.4265	0.122849	0.122726	0.000753576	1	1.62216e-06	9.24835e-08
2	1	0	1	0	4.5265	0.127849	0.127763	0.000732277	1	1.69666e-06	9.35578e-08
2	1	0	1	0	4.6265	0.132849	0.13274	0.000712197	1	1.76908e-06	9.4537e-08
2	1	0	1	0	4.7265	0.137849	0.137692	0.000695317	1	1.83963e-06	9.57395e-08
2	1	0	1	0	4.8265	0.14285	0.142716	0.000677955	1	1.90853e-06	9.67549e-08
2	1	0	0	0	4.9267	0.14785	0.14769	0.000666357	1	1.97602e-06	9.84142e-08
2	1	0	0	0	5.0267	0.15285	0.152732	0.00065564	1	2.04205e-06	1.00137e-07
2	1	0	0	0	5.1267	0.15785	0.157754	0.000640645	1	2.1069e-06	1.01064e-07
2	1	0	0	0	5.2267	0.16285	0.162766	0.000630686	1	2.17065e-06	1.02654e-07
2	1	0	0	0	5.3267	0.167851	0.167736	0.000622692	1	2.23347e-06	1.04448e-07
2	1	0	0	0	5.4267	0.172851	0.172788	0.000612795	1	2.29541e-06	1.05884e-07
2	1	0	0	0	5.5267	0.177851	0.177765	0.000606188	1	2.35659e-06	1.07759e-07
2	1	0	0	0	5.6267	0.182851	0.182746	0.000600313	1	2.41709e-06	1.09705e-07
2	1	0	0	0	5.7267	0.187851	0.187735	0.000593596	1	2.47699e-06	1.11439e-07
2	1	0	0	0	5.8267	0.192852	0.192701	0.000589415	1	2.53637e-06	1.13581e-07
2	1	0	0	0	5.9267	0.197852	0.197697	0.000585574	1	2.59526e-06	1.15766e-07
2	1	0	0	0	6.0267	0.202852	0.202621	0.000580768	1	2.65376e-06	1.17676e-07
2	1	0	0	0	6.1267	0.207852	0.207711	0.000578258	1	2.71195e-06	1.20111e-07
2	1	0	0	0	6.2267	0.212852	0.212707	0.000577067	1	2.76983e-06	1.22746e-07
2	1	0	0	0	6.3267	0.217853	0.217686	0.00057325	1	2.82745e-06	1.24788e-07
2	1	0	0	0	6.4267	0.222853	0.222663	0.000570788	1	2.88487e-06	1.27093e-07
2	1	0	0	0	6.5267	0.227853	0.227728	0.000570477	1	2.94213e-06	1.29914e-07
2	1	0	0	0	6.6267	0.232853	0.232667	0.000568241	1	2.99928e-06	1.32211e-07
2	1	0	0	0	6.7267	0.237853	0.237752	0.000568137	1	3.05634e-06	1.35075e-07
2	1	0	0	0	6.8267	0.242854	0.242622	0.000568649	1	3.11334e-06	1.37967e-07
2	1	0	0	0	6.9267	0.247854	0.247747	0.000567031	1	3.17034e-06	1.4048e-07
2	1	0	0	0	7.0267	0.252854	0.252641	0.000569216	1	3.22734e-06	1.43807e-07
2	1	0	0	0	7.1267	0.257854	0.257733	0.000569633	1	3.28443e-06	1.46813e-07
2	1	0	0	0	7.2267	0.262854	0.262689	0.00056846	1	3.34157e-06	1.49328e-07
2	1	0	0	0	7.3267	0.267855	0.267628	0.000572542	1	3.39882e-06	1.53228e-07
2	1	0	0	0	7.4267	0.272855	0.272681	0.000572991	1	3.4562e-06	1.56243e-07
2	1	0	0	0	7.5267	0.277855	0.277686	0.000573217	1	3.51375e-06	1.59174e-07
2	1	0	0	0	7.6267	0.282855	0.282707	0.000575296	1	3.57151e-06	1.6264e-07
2	1	0	0	0	7.7267	0.287855	0.287661	0.000578511	1	3.62946e-06	1.66415e-07
2	1	0	0	0	7.8267	0.292856	0.292696	0.000581045	1	3.68764e-06	1.7007e-07
2	1	0	0	0	7.9267	0.297856	0.297657	0.000582769	1	3.74611e-06	1.73466e-07
2	0	0	1	0	8.0153	0.297706	0.297518	0.000446884	1	3.79241e-06	1.32956e-07
2	0	0	1	0	8.1153	0.292706	0.292512	0.000400582	1	3.8344e-06	1.17175e-07
2	0	0	1	0	8.2153	0.287705	0.28749	0.000370238	1	3.87263e-06	1.0644e-07
2	0	0	1	0	8.3153	0.282705	0.282529	0.000345364	1	3.90815e-06	9.75754e-08
2	0	0	1	0	8.4153	0.277705	0.277527	0.000326529	1	3.94151e-06	9.06204e-08
2	0	0	1	0	8.5153	0.272705	0.272548	0.000316699	1	3.97343e-06	8.63157e-08
2	0	0	1	0	8.6153	0.267705	0.267572	0.000302813	1	4.00449e-06	8.10244e-08
2	0	0	1	0	8.7153	0.262704	0.26254	0.000286315	1	4.03375e-06	7.51691e-08
2	0	0	1	0	8.8153	0.257704	0.257516	0.00027362	1	4.06152e-06	7.04615e-08
2	0	0	1	0	8.9153	0.252704	0.252467	0.000262451	1	4.08816e-06	6.62603e-08
2	0	0	1	0	9.0153	0.247704	0.247453	0.000255458	1	4.11397e-06	6.32138e-08
2	0	0	1	0	9.1153	0.242704	0.242531	0.000246886	1	4.139e-06	5.98774e-08
2	0	0	1	0	9.2153	0.237703	0.237512	0.00024174	1	4.1633e-06	5.74162e-08
2	0	0	1	0	9.3153	0.232703	0.232502	0.000233721	1	4.18695e-06	5.43405e-08
2	0	0	1	0	9.4153	0.227703	0.22748	0.000226814	1	4.20996e-06	5.15957e-08
2	0	0	1	0	9.5153	0.222703	0.222522	0.000223546	1	4.23242e-06	4.9744e-08
2	0	0	1	0	9.6153	0.217703	0.217502	0.000217966	1	4.25435e-06	4.74082e-08
2	0	0	1	0	9.7153	0.212702	0.212564	0.000213317	1	4.27575e-06	4.53436e-08
2	0	0	1	0	9.8153	0.207702	0.207518	0.000207852	1	4.29665e-06	4.3133e-08
2	0	0	1	0	9.9153	0.202702	0.202555	0.000203042	1	4.31707e-06	4.11271e-08
2	0	0	1	0	10.0153	0.197702	0.197504	0.000198305	1	4.33704e-06	3.9166e-08
2	0	0	1	0	10.1153	0.192702	0.192527	0.000193887	1	4.35656e-06	3.73284e-08
2	0	0	1	0	10.2153	0.187701	0.187533	0.000190087	1	4.37563e-06	3.56475e-08
2	0	0	1	0	10.3153	0.182701	0.182494	0.00018585	1	4.39424e-06	3.39164e-08
2	0	0	1	0	10.4153	0.177701	0.177573	0.000181626	1	4.41249e-06	3.22519e-08
2	0	0	1	0	10.5153	0.172701	0.172542	0.000177574	1	4.43033e-06	3.06391e-08
2	0	0	1	0	10.6153	0.167701	0.16749	0.000173096	1	4.44775e-06	2.89919e-08
2	0	0	1	0	10.7153	0.1627	0.162559	0.000168235	1	4.46472e-06	2.73482e-08
2	0	0	1	0	10.8153	0.1577	0.157593	0.000164711	1	4.48127e-06	2.59573e-08
2	0	0	1	0	10.9153	0.1527	0.152556	0.000156515	1	4.49741e-06	2.38773e-08
2	0	0	1	0	11.0153	0.1477	0.14751	0.000155441	1	4.51308e-06	2.29291e-08
2	0	0	0	0	11.1155	0.1427	0.142538	0.000150797	1	4.52825e-06	2.14943e-08
2	0	0	0	0	11.2155	0.137699	0.137511	0.000143332	1	4.54285e-06	1.97097e-08
2	0	0	0	0	11.3155	0.132699	0.132562	0.000138424	1	4.5569e-06	1.83497e-08
2	0	0	0	0	11.4155	0.127699	0.127485	0.000132031	1	4.5703e-06	1.6832e-08
2	0	0	0	0	11.5155	0.122699	0.122546	0.000124603	1	4.58294e-06	1.52696e-08
2	0	0	0	0	11.6155	0.117699	0.117579	0.000114712	1	4.59473e-06	1.34877e-08
2	0	0	0	0	11.7155	0.112698	0.112461	0.000101276	1	4.60549e-06	1.13896e-08
2	0	0	0	0	11.8155	0.107698	0.107517	9.06992e-05	1	4.61505e-06	9.75166e-09
2	0	0	0	0	11.9155	0.102698	0.102501	7.34945e-05	1	4.62313e-06	7.53327e-09
2	0	0	0	0	12.0155	0.0976978	0.0975673	5.37338e-05	1	4.62938e-06	5.24266e-09
2	0	0	0	0	12.1155	0.0926976	0.0925402	2.89177e-05	1	4.63336e-06	2.67605e-09
2	0	0	0	0	12.2155	0.0876974	0.0875353	-3.33841e-06	1	4.63454e-06	-2.92229e-10
2	0	0	0	0	12.3155	0.0826972	0.0825432	-4.09944e-05	1	4.63223e-06	-3.38381e-09
2	0	0	0	0	12.4155	0.077697	0.0775638	-8.94114e-05	1	4.62566e-06	-6.93508e-09
2	0	0	0	0	12.5155	0.0726968	0.0725494	-0.000145758	1	4.61389e-06	-1.05746e-08
2	0	0	0	0	12.6155	0.0676966	0.0675244	-0.000212395	1	4.59603e-06	-1.43418e-08
2	0	0	0	0	12.7155	0.0626964	0.0625471	-0.000285536	1	4.57114e-06	-1.78595e-08
2	0	0	0	0	12.8155	0.0576962	0.0575476	-0.000366372	1	4.53844e-06	-2.10838e-08
2	0	0	0	0	12.9155	0.052696	0.0525735	-0.000448643	1	4.49755e-06	-2.35867e-08
2	0	0	0	0	13.0155	0.0476958	0.0475071	-0.000530078	1	4.44841e-06	-2.51825e-08
2	0	0	0	0	13.1155	0.0426956	0.0425564	-0.000598434	1	4.39179e-06	-2.54672e-08
2	0	0	0	0	13.2155	0.0376954	0.0375536	-0.000654556	1	4.32888e-06	-2.45809e-08
2	0	0	0	0	13.3155	0.0326952	0.0325785	-0.000691321	1	4.26135e-06	-2.25222e-08
2	0	0	0	0	13.4155	0.027695	0.0275376	-0.000706708	1	4.19115e-06	-1.9461e-08
2	0	0	0	0	13.5155	0.0226948	0.0225189	-0.000707313	1	4.12013e-06	-1.59279e-08
2	0	0	0	0	13.6155	0.0176946	0.0175735	-0.000691291	1	4.04997e-06	-1.21484e-08
2	0	0	0	0	13.7155	0.0126944	0.0125432	-0.000667396	1	3.98184e-06	-8.37126e-09
2	0	0	0	0	13.8155	0.00769417	0.00757013	-0.000637492	1	3.91653e-06	-4.8259e-09
2	0	0	0	0	13.9155	0.00269396	0.0025515	-0.000604144	1	3.85443e-06	-1.54147e-09
2	0	0	0	0	14.0155	-0.00230624	-0.00245017	-0.000571396	1	3.79558e-06	1.40001e-09
2	0	0	0	0	14.1155	-0.00730644	-0.0074741	-0.000539789	1	3.73998e-06	4.03444e-09
2	0	0	0	0	14.2155	-0.0123066	-0.0124832	-0.000510411	1	3.68742e-06	6.37155e-09
2	0	0	0	0	14.3155	-0.0173068	-0.0174912	-0.000484074	1	3.6376e-06	8.46704e-09
2	0	0	0	0	14.4155	-0.0223071	-0.0224897	-0.000460501	1	3.59027e-06	1.03565e-08
2	0	0	0	0	14.5155	-0.0273073	-0.027484	-0.000440822	1	3.54517e-06	1.21155e-08
2	0	0	0	0	14.6155	-0.0323075	-0.032474	-0.000422123	1	3.50206e-06	1.3708e-08
2	0	0	0	0	14.7155	-0.0373077	-0.0374629	-0.000403256	1	3.46071e-06	1.51071e-08
2	0	0	0	0	14.8155	-0.0423079	-0.0424985	-0.000388658	1	3.42092e-06	1.65174e-08
2	0	0	0	0	14.9155	-0.0473081	-0.0475214	-0.00037729	1	3.38255e-06	1.79293e-08
2	0	0	0	0	15.0155	-0.0523083	-0.0524743	-0.000366944	1	3.34542e-06	1.92551e-08
2	0	0	0	0	15.1155	-0.0573085	-0.0574728	-0.000352119	1	3.30942e-06	2.02372e-08
2	0	0	0	0	15.2155	-0.0623087	-0.0624914	-0.000344369	1	3.27447e-06	2.15201e-08
2	0	0	0	0	15.3155	-0.0673089	-0.0674697	-0.000335064	1	3.24043e-06	2.26067e-08
2	0	0	0	0	15.4155	-0.0723091	-0.0724608	-0.000327877	1	3.20729e-06	2.37582e-08
2	0	0	0	0	15.5155	-0.0773093	-0.0774667	-0.000320316	1	3.17491e-06	2.48139e-08
2	0	0	0	0	15.6155	-0.0823095	-0.082515	-0.000311905	1	3.14324e-06	2.57368e-08
2	0	0	0	0	15.7155	-0.0873097	-0.08754	-0.000305514	1	3.11225e-06	2.67447e-08
2	0	0	0	0	15.8155	-0.0923099	-0.0924622	-0.000299669	1	3.08186e-06	2.77081e-08
2	0	0	0	0	15.9155	-0.0973101	-0.0974776	-0.000294405	1	3.05204e-06	2.86979e-08
2	0	0	1	0	16.0157	-0.10231	-0.102485	-0.000289906	1	3.02271e-06	2.97109e-08
2	0	0	1	0	16.1157	-0.107311	-0.107481	-0.000284621	1	2.99392e-06	3.05914e-08
2	0	0	1	0	16.2157	-0.112311	-0.112429	-0.000279659	1	2.96557e-06	3.14417e-08
2	0	0	1	0	16.3157	-0.117311	-0.117464	-0.000276294	1	2.93766e-06	3.24547e-08
2	0	0	1	0	16.4157	-0.122311	-0.122423	-0.00027188	1	2.91013e-06	3.32845e-08
2	0	0	1	0	16.5157	-0.127311	-0.127443	-0.000269116	1	2.88298e-06	3.42969e-08
2	0	0	1	0	16.6157	-0.132312	-0.132459	-0.000264032	1	2.85617e-06	3.49733e-08
2	0	0	1	0	16.7157	-0.137312	-0.137474	-0.00026208	1	2.82968e-06	3.60292e-08
2	0	0	1	0	16.8157	-0.142312	-0.142475	-0.000259635	1	2.80346e-06	3.69915e-08
2	0	0	1	0	16.9157	-0.147312	-0.147513	-0.000258072	1	2.77754e-06	3.80691e-08
2	0	0	1	0	17.0157	-0.152312	-0.152464	-0.000255175	1	2.75187e-06	3.89051e-08
2	0	0	1	0	17.1157	-0.157313	-0.157529	-0.000252999	1	2.72636e-06	3.98548e-08
2	0	0	1	0	17.2157	-0.162313	-0.162473	-0.000251367	1	2.70108e-06	4.08403e-08
2	0	0	1	0	17.3157	-0.167313	-0.167449	-0.000250745	1	2.67599e-06	4.1987e-08
2	0	0	1	0	17.4157	-0.172313	-0.172489	-0.000248915	1	2.65103e-06	4.29351e-08
2	0	0	1	0	17.5157	-0.177313	-0.177498	-0.000247062	1	2.62619e-06	4.3853e-08
2	0	0	1	0	17.6157	-0.182314	-0.182492	-0.000246645	1	2.60144e-06	4.50109e-08
2	0	0	1	0	17.7157	-0.187314	-0.187462	-0.000247232	1	2.57677e-06	4.63466e-08
2	0	0	1	0	17.8157	-0.192314	-0.192438	-0.000246372	1	2.55214e-06	4.74113e-08
2	0	0	1	0	17.9157	-0.197314	-0.197424	-0.0002454	1	2.5275e-06	4.84479e-08
2	1	0	0	1	18.0051	-0.198214	-0.198354	-0.000121403	1	2.50966e-06	2.40807e-08
2	1	0	0	1	18.1051	-0.193214	-0.193294	-9.84765e-05	1	2.49903e-06	1.90349e-08
2	1	0	0	1	18.2051	-0.188214	-0.188341	-8.40804e-05	1	2.49016e-06	1.58358e-08
2	1	0	0	1	18.3051	-0.183214	-0.183348	-7.47679e-05	1	2.48249e-06	1.37085e-08
2	1	0	0	1	18.4051	-0.178213	-0.178284	-6.53071e-05	1	2.47578e-06	1.16432e-08
2	1	0	0	1	18.5051	-0.173213	-0.173333	-5.71676e-05	1	2.46986e-06	9.90901e-09
2	1	0	0	1	18.6051	-0.168213	-0.168357	-5.12484e-05	1	2.46461e-06	8.628e-09
2	1	0	0	1	18.7051	-0.163213	-0.163297	-4.50678e-05	1	2.45998e-06	7.35941e-09
2	1	0	0	1	18.8051	-0.158213	-0.158332	-3.9523e-05	1	2.45589e-06	6.25776e-09
2	1	0	0	1	18.9051	-0.153212	-0.153296	-3.6181e-05	1	2.45231e-06	5.54642e-09
2	1	0	0	1	19.0051	-0.148212	-0.148294	-2.99386e-05	1	2.44916e-06	4.4397e-09
2	1	0	0	1	19.1051	-0.143212	-0.143308	-2.59271e-05	1	2.44641e-06	3.71556e-09
2	1	0	0	1	19.2051	-0.138212	-0.138289	-2.34117e-05	1	2.44406e-06	3.23759e-09
2	1	0	0	1	19.3051	-0.133212	-0.133314	-1.99284e-05	1	2.44207e-06	2.65674e-09
2	1	0	0	1	19.4051	-0.128211	-0.12837	-1.71075e-05	1	2.44041e-06	2.19608e-09
2	1	0	0	1	19.5051	-0.123211	-0.123305	-1.40799e-05	1	2.43907e-06	1.73612e-09
2	1	0	0	1	19.6051	-0.118211	-0.11835	-1.16122e-05	1	2.43803e-06	1.37431e-09
2	1	0	0	1	19.7051	-0.113211	-0.113311	-9.71334e-06	1	2.43728e-06	1.10062e-09
2	1	0	0	1	19.8051	-0.108211	-0.108361	-5.33621e-06	1	2.43679e-06	5.78236e-10
2	1	0	0	1	19.9051	-0.10321	-0.103326	-1.50843e-06	1	2.43657e-06	1.5586e-10
2	1	0	1	1	20.0053	-0.0982101	-0.0983639	-1.29999e-06	2	2.43658e-06	1.27872e-10
2	1	0	1	1	20.1053	-0.09321	-0.0933527	1.7647e-06	2	2.43683e-06	-1.6474e-10
2	1	0	1	1	20.2053	-0.0882097	-0.0883415	6.23722e-06	2	2.43734e-06	-5.51005e-10
2	1	0	1	1	20.3053	-0.0832095	-0.0833324	5.26923e-06	2	2.43804e-06	-4.39098e-10
2	1	0	1	1	20.4053	-0.0782093	-0.078336	7.31472e-06	2	2.43896e-06	-5.73006e-10
2	1	0	1	1	20.5053	-0.0732091	-0.0734022	8.74373e-06	2	2.44008e-06	-6.41809e-10
2	1	0	1	1	20.6053	-0.0682089	-0.0683338	1.09994e-05	2	2.4414e-06	-7.51632e-10
2	1	0	1	1	20.7053	-0.0632087	-0.0633331	1.40518e-05	2	2.44292e-06	-8.89942e-10
2	1	0	1	1	20.8053	-0.0582085	-0.0583346	1.53448e-05	2	2.44462e-06	-8.95131e-10
2	1	0	1	1	20.9053	-0.0532083	-0.0533849	1.77223e-05	2	2.44651e-06	-9.46105e-10
2	1	0	1	1	21.0053	-0.0482081	-0.0483207	2.04479e-05	2	2.44864e-06	-9.88056e-10
2	1	0	1	1	21.1053	-0.0432079	-0.0433307	2.25799e-05	2	2.45096e-06	-9.78403e-10
2	1	0	1	1	21.2053	-0.0382077	-0.0383025	2.37634e-05	2	2.45349e-06	-9.10198e-10
2	1	0	1	1	21.3053	-0.0332075	-0.0333401	2.74958e-05	2	2.45626e-06	-9.16712e-10
2	1	0	1	1	21.4053	-0.0282073	-0.0282981	3.08661e-05	2	2.45931e-06	-8.73452e-10
2	1	0	1	1	21.5053	-0.0232071	-0.0233155	3.35669e-05	2	2.4627e-06	-7.8263e-10
2	1	0	1	1	21.6053	-0.0182069	-0.0183446	3.89615e-05	2	2.46647e-06	-7.14733e-10
2	1	0	1	1	21.7053	-0.0132067	-0.013309	4.34534e-05	2	2.47072e-06	-5.78323e-10
2	1	0	1	1	21.8053	-0.00820648	-0.00830312	5.20028e-05	2	2.47557e-06	-4.31785e-10
2	1	0	1	1	21.9053	-0.00320627	-0.00336082	5.83247e-05	2	2.48117e-06	-1.96019e-10
2	1	0	1	1	22.0053	0.00179393	0.00169174	6.90573e-05	2	2.48782e-06	1.16827e-10
2	1	0	1	1	22.1053	0.00679413	0.00673793	8.5317e-05	2	2.49569e-06	5.7486e-10
2	1	0	1	1	22.2053	0.0117943	0.0117142	0.00010441	2	2.50521e-06	1.22307e-09
2	1	0	1	1	22.3053	0.0167945	0.0167148	0.000127057	2	2.51688e-06	2.12373e-09
2	1	0	1	1	22.4053	0.0217947	0.0216814	0.00015781	2	2.53128e-06	3.42155e-09
2	1	0	1	1	22.5053	0.0267949	0.0267181	0.000196987	2	2.54914e-06	5.26311e-09
2	1	0	1	1	22.6053	0.0317951	0.031688	0.00024428	2	2.57129e-06	7.74074e-09
2	1	0	1	1	22.7053	0.0367953	0.036732	0.000300459	2	2.59863e-06	1.10365e-08
2	1	0	1	1	22.8053	0.0417955	0.0417167	0.000366057	2	2.63208e-06	1.52707e-08
2	1	0	1	1	22.9053	0.0467957	0.0467205	0.00043743	2	2.67243e-06	2.0437e-08
2	1	0	1	1	23.0053	0.0517959	0.051736	0.00051657	2	2.72032e-06	2.67253e-08
2	1	0	1	1	23.1053	0.0567961	0.0566942	0.00059211	2	2.77597e-06	3.35692e-08
2	1	0	1	1	23.2053	0.0617963	0.0617117	0.000665769	2	2.83915e-06	4.10858e-08
2	1	0	1	1	23.3053	0.0667965	0.0666975	0.000729675	2	2.90923e-06	4.86675e-08
2	1	0	1	1	23.4053	0.0717967	0.0717236	0.000780039	2	2.98506e-06	5.59471e-08
2	1	0	1	1	23.5053	0.0767969	0.0767263	0.000817705	2	3.06523e-06	6.27395e-08
2	1	0	1	1	23.6053	0.0817971	0.081676	0.000837072	2	3.14818e-06	6.83687e-08
2	1	0	1	1	23.7053	0.0867973	0.0866565	0.000842029	2	3.23241e-06	7.29672e-08
2	1	0	1	1	23.8053	0.0917976	0.0916677	0.000836343	2	3.31659e-06	7.66656e-08
2	1	0	1	1	23.9053	0.0967978	0.0966821	0.000821632	2	3.39965e-06	7.94371e-08
2	1	0	1	1	24.0053	0.101798	0.101679	0.000800031	2	3.48085e-06	8.13467e-08
2	1	0	1	1	24.1053	0.106798	0.106677	0.000774743	2	3.55974e-06	8.26472e-08
2	1	0	1	1	24.2053	0.111798	0.111694	0.000750084	2	3.63608e-06	8.37803e-08
2	1	0	1	1	24.3053	0.116799	0.116644	0.000722732	2	3.70982e-06	8.43024e-08
2	1	0	1	1	24.4053	0.121799	0.121605	0.000697027	2	3.78099e-06	8.47616e-08
2	1	0	1	1	24.5053	0.126799	0.126654	0.000674679	2	3.84973e-06	8.54507e-08
2	1	0	1	1	24.6053	0.131799	0.131644	0.000652381	2	3.91619e-06	8.5882e-08
2	1	0	1	1	24.7053	0.136799	0.136665	0.000632405	2	3.98055e-06	8.64274e-08
2	1	0	1	1	24.8053	0.1418	0.14158	0.000612888	2	4.043e-06	8.6773e-08
2	1	0	1	1	24.9053	0.1468	0.146672	0.000597231	2	4.10368e-06	8.75972e-08
2	1	0	0	1	25.0055	0.1518	0.151631	0.000581718	2	4.16288e-06	8.82068e-08
2	1	0	0	1	25.1055	0.1568	0.156678	0.000568808	2	4.22055e-06	8.91195e-08
2	1	0	0	1	25.2055	0.1618	0.161659	0.000554687	2	4.27689e-06	8.96703e-08
2	1	0	0	1	25.3055	0.166801	0.166683	0.000544696	2	4.33205e-06	9.07917e-08
2	1	0	0	1	25.4055	0.171801	0.171652	0.000533743	2	4.38611e-06	9.1618e-08
2	1	0	0	1	25.5055	0.176801	0.176625	0.000524494	2	4.43919e-06	9.26388e-08
2	1	0	0	1	25.6055	0.181801	0.181674	0.000515141	2	4.49138e-06	9.35879e-08
2	1	0	0	1	25.7055	0.186801	0.186664	0.000508222	2	4.54275e-06	9.4867e-08
2	1	0	0	1	25.8055	0.191802	0.191694	0.000501717	2	4.59337e-06	9.61758e-08
2	1	0	0	1	25.9055	0.196802	0.196637	0.000495064	2	4.64334e-06	9.73479e-08
2	1	0	0	1	26.0055	0.201802	0.201676	0.000488546	2	4.69267e-06	9.85279e-08
2	1	0	0	1	26.1055	0.206802	0.206683	0.000483049	2	4.74151e-06	9.98379e-08
2	1	0	0	1	26.2055	0.211802	0.211684	0.000479721	2	4.78983e-06	1.0155e-07
2	1	0	0	1	26.3055	0.216803	0.216665	0.00047464	2	4.83773e-06	1.02838e-07
2	1	0	0	1	26.4055	0.221803	0.221664	0.00047084	2	4.88524e-06	1.04368e-07
2	1	0	0	1	26.5055	0.226803	0.22662	0.00046801	2	4.9324e-06	1.06061e-07
2	1	0	0	1	26.6055	0.231803	0.231644	0.00046567	2	4.97929e-06	1.0787e-07
2	1	0	0	1	26.7055	0.236803	0.236653	0.00046326	2	5.02592e-06	1.09632e-07
2	1	0	0	1	26.8055	0.241804	0.24163	0.000460113	2	5.07233e-06	1.11177e-07
2	1	0	0	1	26.9055	0.246804	0.246644	0.000459539	2	5.1186e-06	1.13342e-07
2	1	0	0	1	27.0055	0.251804	0.251692	0.000458625	2	5.16474e-06	1.15433e-07
2	1	0	0	1	27.1055	0.256804	0.256721	0.000459501	2	5.21087e-06	1.17963e-07
2	1	0	0	1	27.2055	0.261804	0.261677	0.000457966	2	5.25696e-06	1.19839e-07
2	1	0	0	1	27.3055	0.266805	0.266695	0.000457959	2	5.30307e-06	1.22136e-07
2	1	0	0	1	27.4055	0.271805	0.271684	0.00046072	2	5.34928e-06	1.2517e-07
2	1	0	0	1	27.5055	0.276805	0.276695	0.000461127	2	5.39565e-06	1.27592e-07
2	1	0	0	1	27.6055	0.281805	0.28168	0.000463923	2	5.44219e-06	1.30678e-07
2	1	0	0	1	27.7055	0.286805	0.286662	0.000465781	2	5.48898e-06	1.33522e-07
2	1	0	0	1	27.8055	0.291806	0.29164	0.000470236	2	5.53605e-06	1.3714e-07
2	1	0	0	1	27.9055	0.296806	0.296645	0.000472608	2	5.58347e-06	1.40197e-07
2	0	0	0	1	27.9951	0.298706	0.298505	0.000360334	2	5.62343e-06	1.07562e-07
2	0	0	0	1	28.0951	0.293706	0.293478	0.000321592	2	5.65717e-06	9.43802e-08
2	0	0	0	1	28.1951	0.288705	0.288506	0.000298535	2	5.68808e-06	8.61292e-08
2	0	0	0	1	28.2951	0.283705	0.283521	0.000283362	2	5.717e-06	8.03389e-08
2	0	0	0	1	28.3951	0.278705	0.278518	0.000267593	2	5.74435e-06	7.45294e-08
2	0	0	0	1	28.4951	0.273705	0.273454	0.000255979	2	5.77044e-06	6.99984e-08
2	0	0	0	1	28.5951	0.268705	0.268466	0.00024628	2	5.79543e-06	6.61177e-08
2	0	0	0	1	28.6951	0.263704	0.263521	0.000237231	2	5.81949e-06	6.25153e-08
2	0	0	0	1	28.7951	0.258704	0.258538	0.000229435	2	5.84271e-06	5.93177e-08
2	0	0	0	1	28.8951	0.253704	0.253468	0.000222638	2	5.86517e-06	5.64317e-08
2	0	0	0	1	28.9951	0.248704	0.248531	0.00021644	2	5.88699e-06	5.37921e-08
2	0	0	0	1	29.0951	0.243704	0.243524	0.000210383	2	5.90819e-06	5.12334e-08
2	0	0	0	1	29.1951	0.238703	0.238499	0.000205096	2	5.92882e-06	4.89153e-08
2	0	0	0	1	29.2951	0.233703	0.233536	0.000200479	2	5.94893e-06	4.6819e-08
2	0	0	0	1	29.3951	0.228703	0.228515	0.000193807	2	5.96855e-06	4.42878e-08
2	0	0	0	1	29.4951	0.223703	0.223499	0.000189483	2	5.98771e-06	4.23494e-08
2	0	0	0	1	29.5951	0.218703	0.218497	0.000184913	2	6.00645e-06	4.0403e-08
2	0	0	0	1	29.6951	0.213702	0.213497	0.000182836	2	6.02476e-06	3.9035e-08
2	0	0	0	1	29.7951	0.208702	0.208517	0.000177419	2	6.04268e-06	3.69947e-08
2	0	0	0	1	29.8951	0.203702	0.203562	0.00017204	2	6.0602e-06	3.50207e-08
2	0	0	0	1	29.9951	0.198702	0.198578	0.000170848	2	6.07733e-06	3.39266e-08
2	0	0	0	1	30.0951	0.193702	0.19354	0.000168267	2	6.09412e-06	3.25664e-08
2	0	0	0	1	30.1951	0.188701	0.18855	0.000162067	2	6.11051e-06	3.05578e-08
2	0	0	0	1	30.2951	0.183701	0.18351	0.000159839	2	6.12657e-06	2.93322e-08
2	0	0	0	1	30.3951	0.178701	0.178557	0.000156169	2	6.14225e-06	2.7885e-08
2	0	0	0	1	30.4951	0.173701	0.173519	0.000152346	2	6.15755e-06	2.6435e-08
2	0	0	0	1	30.5951	0.168701	0.168534	0.000149397	2	6.17251e-06	2.51784e-08
2	0	0	0	1	30.6951	0.1637	0.163513	0.000145571	2	6.18708e-06	2.38027e-08
2	0	0	0	1	30.7951	0.1587	0.15852	0.000141476	2	6.20126e-06	2.24268e-08
2	0	0	0	1	30.8951	0.1537	0.153551	0.000137615	2	6.21506e-06	2.11309e-08
2	0	0	0	1	30.9951	0.1487	0.148533	0.000132072	2	6.22841e-06	1.9617e-08
2	0	0	1	1	31.0953	0.1437	0.143509	0.000129019	2	6.24137e-06	1.85154e-08
2	0	0	1	1	31.1953	0.138699	0.138502	0.000124052	2	6.25383e-06	1.71815e-08
2	0	0	1	1	31.2953	0.133699	0.133539	0.000118868	2	6.26575e-06	1.58736e-08
2	0	0	1	1	31.3953	0.128699	0.128549	0.000109831	2	6.27708e-06	1.41187e-08
2	0	0	1	1	31.4953	0.123699	0.123459	0.000103599	2	6.28772e-06	1.27902e-08
2	0	0	1	1	31.5953	0.118699	0.118565	9.61591e-05	2	6.29758e-06	1.14011e-08
2	0	0	1	1	31.6953	0.113698	0.113538	8.53771e-05	2	6.30651e-06	9.69354e-09
2	0	0	1	1	31.7953	0.108698	0.108543	7.34044e-05	2	6.31433e-06	7.96752e-09
2	0	0	1	1	31.8953	0.103698	0.103523	5.78071e-05	2	6.32079e-06	5.98437e-09
2	0	0	1	1	31.9953	0.0986978	0.0985267	4.13673e-05	2	6.32558e-06	4.07578e-09
2	0	0	1	1	32.0953	0.0936976	0.0934921	1.73461e-05	2	6.32831e-06	1.62172e-09
2	0	0	1	1	32.1953	0.0886974	0.0885265	-1.36612e-05	2	6.32849e-06	-1.20938e-09
2	0	0	1	1	32.2953	0.0836972	0.0835079	-4.55429e-05	2	6.3255e-06	-3.80319e-09
2	0	0	1	1	32.3953	0.078697	0.0785603	-8.82261e-05	2	6.31861e-06	-6.93107e-09
2	0	0	1	1	32.4953	0.0736968	0.0735215	-0.000140835	2	6.30697e-06	-1.03544e-08
2	0	0	1	1	32.5953	0.0686966	0.0685707	-0.000201703	2	6.28972e-06	-1.38309e-08
2	0	0	1	1	32.6953	0.0636964	0.0635383	-0.000271735	2	6.26592e-06	-1.72656e-08
2	0	0	1	1	32.7953	0.0586962	0.0585367	-0.000348522	2	6.23477e-06	-2.04013e-08
2	0	0	1	1	32.8953	0.053696	0.0535138	-0.000428381	2	6.19571e-06	-2.29243e-08
2	0	0	1	1	32.9953	0.0486958	0.0485376	-0.000510778	2	6.14853e-06	-2.47919e-08
2	0	0	1	1	33.0953	0.0436956	0.0435327	-0.000584562	2	6.0936e-06	-2.54476e-08
2	0	0	1	1	33.1953	0.0386954	0.0385215	-0.000644648	2	6.03184e-06	-2.48328e-08
2	0	0	1	1	33.2953	0.0336952	0.0335241	-0.000690007	2	5.96466e-06	-2.31319e-08
2	0	0	1	1	33.3953	0.028695	0.028568	-0.000718153	2	5.89385e-06	-2.05162e-08
2	0	0	1	1	33.4953	0.0236948	0.0234847	-0.000727407	2	5.82128e-06	-1.70829e-08
2	0	0	1	1	33.5953	0.0186946	0.0185149	-0.000718741	2	5.74867e-06	-1.33074e-08
2	0	0	1	1	33.6953	0.0136944	0.0135174	-0.0007008	2	5.67745e-06	-9.47301e-09
2	0	0	1	1	33.7953	0.00869421	0.00854968	-0.00067117	2	5.60857e-06	-5.73829e-09
2	0	0	1	1	33.8953	0.003694	0.00354272	-0.000641454	2	5.54267e-06	-2.27249e-09
2	0	0	1	1	33.9953	-0.0013062	-0.00153316	-0.000608894	2	5.47996e-06	9.33533e-10
2	0	0	1	1	34.0953	-0.0063064	-0.00648712	-0.000576794	2	5.42047e-06	3.74173e-09
2	0	0	1	1	34.1953	-0.0113066	-0.011545	-0.000546989	2	5.36412e-06	6.31498e-09
2	0	0	1	1	34.2953	-0.0163068	-0.0165074	-0.000519013	2	5.31063e-06	8.56757e-09
2	0	0	1	1	34.3953	-0.021307	-0.0215239	-0.000493282	2	5.25979e-06	1.06174e-08
2	0	0	1	1	34.4953	-0.0263072	-0.0264641	-0.00047297	2	5.21128e-06	1.25167e-08
2	0	0	1	1	34.5953	-0.0313074	-0.03147	-0.000454174	2	5.16489e-06	1.42929e-08
2	0	0	1	1	34.6953	-0.0363076	-0.0364961	-0.000433809	2	5.12039e-06	1.58323e-08
2	0	0	1	1	34.7953	-0.0413078	-0.0414755	-0.000417585	2	5.07755e-06	1.73195e-08
2	0	0	1	1	34.8953	-0.046308	-0.0464411	-0.000404967	2	5.03624e-06	1.88071e-08
2	0	0	1	1	34.9953	-0.0513082	-0.0515255	-0.000393719	2	4.99627e-06	2.02866e-08
2	0	0	1	1	35.0953	-0.0563084	-0.0564402	-0.000380554	2	4.95747e-06	2.14785e-08
2	0	0	1	1	35.1953	-0.0613086	-0.0615108	-0.000370418	2	4.91981e-06	2.27847e-08
2	0	0	1	1	35.2953	-0.0663089	-0.0665262	-0.000359946	2	4.88314e-06	2.39458e-08
2	0	0	1	1	35.3953	-0.071309	-0.0714908	-0.000352989	2	4.84742e-06	2.52355e-08
2	0	0	1	1	35.4953	-0.0763093	-0.0764246	-0.000344108	2	4.81254e-06	2.62983e-08
2	0	0	1	1	35.5953	-0.0813095	-0.0814984	-0.000335592	2	4.77843e-06	2.73502e-08
2	0	0	1	1	35.6953	-0.0863097	-0.0864704	-0.000328207	2	4.74503e-06	2.83802e-08
2	0	0	1	1	35.7953	-0.0913099	-0.091472	-0.000322245	2	4.7123e-06	2.94764e-08
2	0	0	1	1	35.8953	-0.0963101	-0.0964917	-0.000317921	2	4.68021e-06	3.06768e-08
2	0	0	0	1	35.9955	-0.10131	-0.101452	-0.000310863	2	4.64863e-06	3.15377e-08
2	0	0	0	1	36.0955	-0.10631	-0.106453	-0.000305779	2	4.61763e-06	3.2551e-08
2	0	0	0	1	36.1955	-0.111311	-0.111469	-0.000301126	2	4.58714e-06	3.35663e-08
2	0	0	0	1	36.2955	-0.116311	-0.11648	-0.000297256	2	4.55712e-06	3.46245e-08
2	0	0	0	1	36.3955	-0.121311	-0.121516	-0.000292128	2	4.52752e-06	3.54982e-08
2	0	0	0	1	36.4955	-0.126311	-0.126467	-0.000288101	2	4.49834e-06	3.64352e-08
2	0	0	0	1	36.5955	-0.131311	-0.131508	-0.000284928	2	4.46953e-06	3.74703e-08
2	0	0	0	1	36.6955	-0.136312	-0.136469	-0.000281076	2	4.4411e-06	3.83582e-08
2	0	0	0	1	36.7955	-0.141312	-0.141443	-0.000277137	2	4.41299e-06	3.91991e-08
2	0	0	0	1	36.8955	-0.146312	-0.146476	-0.000275021	2	4.38517e-06	4.02838e-08
2	0	0	0	1	36.9955	-0.151312	-0.15151	-0.000273253	2	4.35765e-06	4.14005e-08
2	0	0	0	1	37.0955	-0.156313	-0.156458	-0.000271398	2	4.33035e-06	4.24623e-08
2	0	0	0	1	37.1955	-0.161313	-0.161513	-0.000267503	2	4.30332e-06	4.32053e-08
2	0	0	0	1	37.2955	-0.166313	-0.166442	-0.000266226	2	4.27648e-06	4.43111e-08
2	0	0	0	1	37.3955	-0.171313	-0.171459	-0.000264209	2	4.24983e-06	4.53011e-08
2	0	0	0	1	37.4955	-0.176313	-0.176457	-0.000263068	2	4.22332e-06	4.64201e-08
2	0	0	0	1	37.5955	-0.181314	-0.181438	-0.000261536	2	4.19694e-06	4.74527e-08
2	0	0	0	1	37.6955	-0.186314	-0.186477	-0.000260554	2	4.17067e-06	4.85874e-08
2	0	0	0	1	37.7955	-0.191314	-0.19151	-0.000261522	2	4.14446e-06	5.0084e-08
2	0	0	0	1	37.8955	-0.196314	-0.196442	-0.000258489	2	4.11827e-06	5.07782e-08
2	1	0	1	0	37.9849	-0.199214	-0.199298	-0.000145657	2	4.09666e-06	2.90292e-08
2	1	0	1	0	38.0849	-0.194214	-0.19433	-0.000116497	2	4.08421e-06	2.26389e-08
2	1	0	1	0	38.1849	-0.189214	-0.189361	-0.000101197	2	4.07375e-06	1.91627e-08
2	1	0	1	0	38.2849	-0.184214	-0.184298	-8.90174e-05	2	4.06454e-06	1.64057e-08
2	1	0	1	0	38.3849	-0.179213	-0.179347	-8.06447e-05	2	4.05632e-06	1.44634e-08
2	1	0	1	0	38.4849	-0.174213	-0.174338	-7.31923e-05	2	4.0489e-06	1.27602e-08
2	1	0	1	0	38.5849	-0.169213	-0.169372	-6.73667e-05	2	4.04219e-06	1.141e-08
2	1	0	1	0	38.6849	-0.164213	-0.164294	-6.02764e-05	2	4.03611e-06	9.90306e-09
2	1	0	1	0	38.7849	-0.159213	-0.15935	-5.48165e-05	2	4.03059e-06	8.73499e-09
2	1	0	1	0	38.8849	-0.154212	-0.15424	-5.1584e-05	2	4.02559e-06	7.95631e-09
2	1	0	1	0	38.9849	-0.149212	-0.149285	-4.58326e-05	2	4.02103e-06	6.84211e-09
2	1	0	1	0	39.0849	-0.144212	-0.144346	-4.12188e-05	2	4.01689e-06	5.94976e-09
2	1	0	1	0	39.1849	-0.139212	-0.139295	-3.76224e-05	2	4.01318e-06	5.24062e-09
2	1	0	1	0	39.2849	-0.134212	-0.134323	-3.34996e-05	2	4.00981e-06	4.49978e-09
2	1	0	1	0	39.3849	-0.129211	-0.129306	-3.08924e-05	2	4.0068e-06	3.99457e-09
2	1	0	1	0	39.4849	-0.124211	-0.124362	-2.65718e-05	2	4.00413e-06	3.30454e-09
2	1	0	1	0	39.5849	-0.119211	-0.119335	-2.39311e-05	2	4.00178e-06	2.85582e-09
2	1	0	1	0	39.6849	-0.114211	-0.114365	-2.22477e-05	2	3.99974e-06	2.54437e-09
2	1	0	1	0	39.7849	-0.109211	-0.10934	-1.7406e-05	2	3.99797e-06	1.90318e-09
2	1	0	1	0	39.8849	-0.10421	-0.104325	-1.61748e-05	2	3.99646e-06	1.68744e-09
2	1	0	1	0	39.9849	-0.0992102	-0.0993318	-1.45603e-05	3	3.99523e-06	1.4463e-09
2	1	0	0	0	40.0851	-0.09421	-0.0943693	-1.11688e-05	3	3.99423e-06	1.054e-09
2	1	0	0	0	40.1851	-0.0892098	-0.0894186	-9.40952e-06	3	3.99349e-06	8.41385e-10
2	1	0	0	0	40.2851	-0.0842096	-0.0843936	-5.8202e-06	3	3.99297e-06	4.91187e-10
2	1	0	0	0	40.3851	-0.0792094	-0.0793463	-4.03791e-06	3	3.99267e-06	3.20393e-10
2	1	0	0	0	40.4851	-0.0742092	-0.0743913	-2.05778e-06	3	3.99258e-06	1.53081e-10
2	1	0	0	0	40.5851	-0.069209	-0.069325	-8.05401e-07	3	3.9927e-06	5.58344e-11
2	1	0	0	0	40.6851	-0.0642088	-0.0643678	2.36528e-06	3	3.99302e-06	-1.52248e-10
2	1	0	0	0	40.7851	-0.0592086	-0.0593566	2.85634e-06	3	3.99353e-06	-1.69542e-10
2	1	0	0	0	40.8851	-0.0542084	-0.0543539	6.16126e-06	3	3.99423e-06	-3.34889e-10
2	1	0	0	0	40.9851	-0.0492081	-0.0493543	6.76007e-06	3	3.9952e-06	-3.33639e-10
2	1	0	0	0	41.0851	-0.0442079	-0.044341	1.14728e-05	3	3.99633e-06	-5.08716e-10
2	1	0	0	0	41.1851	-0.0392077	-0.0393255	1.43238e-05	3	3.99769e-06	-5.6329e-10
2	1	0	0	0	41.2851	-0.0342075	-0.0343154	1.36155e-05	3	3.99931e-06	-4.6722e-10
2	1	0	0	0	41.3851	-0.0292073	-0.0293561	1.73673e-05	3	4.00119e-06	-5.09836e-10
2	1	0	0	0	41.4851	-0.0242071	-0.0243121	2.13841e-05	3	4.00342e-06	-5.19891e-10
2	1	0	0	0	41.5851	-0.0192069	-0.0193327	2.5816e-05	3	4.006e-06	-4.99091e-10
2	1	0	0	0	41.6851	-0.0142067	-0.0143798	3.09244e-05	3	4.00907e-06	-4.44685e-10
2	1	0	0	0	41.7851	-0.00920652	-0.00935264	3.71597e-05	3	4.01271e-06	-3.47542e-10
2	1	0	0	0	41.8851	-0.00420631	-0.00434355	4.60076e-05	3	4.0171e-06	-1.99836e-10
2	1	0	0	0	41.9851	0.000793888	0.000703703	5.72278e-05	3	4.02248e-06	4.02713e-11
2	1	0	0	0	42.0851	0.00579409	0.00573187	6.86069e-05	3	4.02903e-06	3.93246e-10
2	1	0	0	0	42.1851	0.0107943	0.010671	8.82845e-05	3	4.03715e-06	9.42084e-10
2	1	0	0	0	42.2851	0.0157945	0.0157458	0.00010931	3	4.04728e-06	1.72117e-09
2	1	0	0	0	42.3851	0.0207947	0.0207061	0.00013918	3	4.05997e-06	2.88187e-09
2	1	0	0	0	42.4851	0.0257949	0.025693	0.000175794	3	4.0759e-06	4.51666e-09
2	1	0	0	0	42.5851	0.0307951	0.0306543	0.00021767	3	4.09584e-06	6.67251e-09
2	1	0	0	0	42.6851	0.0357953	0.0356687	0.000273972	3	4.12061e-06	9.77222e-09
2	1	0	0	0	42.7851	0.0407955	0.0407139	0.000334011	3	4.15112e-06	1.35989e-08
2	1	0	0	0	42.8851	0.0457957	0.0457516	0.000401698	3	4.18814e-06	1.83783e-08
2	1	0	0	0	42.9851	0.0507959	0.0507098	0.000476593	3	4.23231e-06	2.41679e-08
2	1	0	0	0	43.0851	0.0557961	0.055703	0.000552001	3	4.28401e-06	3.07481e-08
2	1	0	0	0	43.1851	0.0607963	0.0606771	0.000623298	3	4.34311e-06	3.78199e-08
2	1	0	0	0	43.2851	0.0657965	0.0657201	0.000689458	3	4.40918e-06	4.53112e-08
2	1	0	0	0	43.3851	0.0707967	0.0706698	0.000742397	3	4.48127e-06	5.2465e-08
2	1	0	0	0	43.4851	0.0757969	0.0757181	0.000785926	3	4.55813e-06	5.95088e-08
2	1	0	0	0	43.5851	0.0807971	0.0806668	0.000810218	3	4.63834e-06	6.53576e-08
2	1	0	0	0	43.6851	0.0857973	0.0856589	0.000822563	3	4.72041e-06	7.04598e-08
2	1	0	0	0	43.7851	0.0907975	0.0907093	0.000821212	3	4.80299e-06	7.44916e-08
2	1	0	0	0	43.8851	0.0957977	0.0956675	0.000809946	3	4.88491e-06	7.74855e-08
2	1	0	0	0	43.9851	0.100798	0.100677	0.000792407	3	4.96534e-06	7.97769e-08
2	1	0	0	0	44.0851	0.105798	0.105662	0.000768668	3	5.0437e-06	8.12193e-08
2	1	0	0	0	44.1851	0.110798	0.110645	0.000742966	3	5.11965e-06	8.22054e-08
2	1	0	0	0	44.2851	0.115798	0.115689	0.000718697	3	5.19308e-06	8.31454e-08
2	1	0	0	0	44.3851	0.120799	0.12066	0.000693911	3	5.26392e-06	8.37273e-08
2	1	0	0	0	44.4851	0.125799	0.12567	0.000669365	3	5.33232e-06	8.41192e-08
2	1	0	0	0	44.5851	0.130799	0.130635	0.000645226	3	5.39837e-06	8.42888e-08
2	1	0	0	0	44.6851	0.135799	0.135642	0.000625562	3	5.46226e-06	8.48523e-08
2	1	0	0	0	44.7851	0.1408	0.14064	0.000605819	3	5.52415e-06	8.52025e-08
2	1	0	0	0	44.8851	0.1458	0.14563	0.000588102	3	5.58418e-06	8.56454e-08
2	1	0	1	0	44.9853	0.1508	0.150642	0.000571721	3	5.64265e-06	8.61254e-08
2	1	0	1	0	45.0853	0.1558	0.155698	0.000557332	3	5.69951e-06	8.67755e-08
2	1	0	1	0	45.1853	0.1608	0.160655	0.000545702	3	5.75495e-06	8.76698e-08
2	1	0	1	0	45.2853	0.165801	0.165669	0.000532611	3	5.80912e-06	8.82369e-08
2	1	0	1	0	45.3853	0.170801	0.170615	0.000521292	3	5.86213e-06	8.89403e-08
2	1	0	1	0	45.4853	0.175801	0.175667	0.000510704	3	5.91408e-06	8.97136e-08
2	1	0	1	0	45.5853	0.180801	0.18066	0.000501946	3	5.96508e-06	9.06815e-08
2	1	0	1	0	45.6853	0.185801	0.185642	0.000493891	3	6.01517e-06	9.16872e-08
2	1	0	1	0	45.7853	0.190802	0.190659	0.000485646	3	6.06445e-06	9.25927e-08
2	1	0	1	0	45.8853	0.195802	0.195687	0.000479707	3	6.113e-06	9.38725e-08
2	1	0	1	0	45.9853	0.200802	0.200641	0.000471456	3	6.16087e-06	9.45935e-08
2	1	0	1	0	46.0853	0.205802	0.205688	0.000464951	3	6.20816e-06	9.56349e-08
2	1	0	1	0	46.1853	0.210802	0.210677	0.000460542	3	6.25485e-06	9.70257e-08
2	1	0	1	0	46.2853	0.215803	0.215644	0.000455942	3	6.30104e-06	9.83212e-08
2	1	0	1	0	46.3853	0.220803	0.220674	0.000452083	3	6.34677e-06	9.9763e-08
2	1	0	1	0	46.4853	0.225803	0.225669	0.000448121	3	6.39209e-06	1.01127e-07
2	1	0	1	0	46.5853	0.230803	0.230661	0.000443574	3	6.43702e-06	1.02315e-07
2	1	0	1	0	46.6853	0.235803	0.235602	0.00044111	3	6.48161e-06	1.03926e-07
2	1	0	1	0	46.7853	0.240804	0.240681	0.000439479	3	6.52591e-06	1.05774e-07
2	1	0	1	0	46.8853	0.245804	0.245646	0.000435759	3	6.56995e-06	1.07043e-07
2	1	0	1	0	46.9853	0.250804	0.250691	0.000434509	3	6.61378e-06	1.08927e-07
2	1	0	1	0	47.0853	0.255804	0.255686	0.000433783	3	6.65746e-06	1.10912e-07
2	1	0	1	0	47.1853	0.260804	0.260666	0.000431077	3	6.701e-06	1.12367e-07
2	1	0	1	0	47.2853	0.265805	0.265661	0.000430342	3	6.74445e-06	1.14325e-07
2	1	0	1	0	47.3853	0.270805	0.270708	0.000430692	3	6.78792e-06	1.16592e-07
2	1	0	1	0	47.4853	0.275805	0.275681	0.000431783	3	6.83138e-06	1.19034e-07
2	1	0	1	0	47.5853	0.280805	0.280635	0.000433562	3	6.87494e-06	1.21673e-07
2	1	0	1	0	47.6853	0.285805	0.285679	0.00043315	3	6.91864e-06	1.23742e-07
2	1	0	1	0	47.7853	0.290806	0.290664	0.000435706	3	6.96252e-06	1.26644e-07
2	1	0	1	0	47.8853	0.295806	0.295632	0.000440161	3	7.00666e-06	1.30126e-07
2	0	0	1	0	47.9749	0.299706	0.29955	0.000344355	3	7.04584e-06	1.03152e-07
2	0	0	1	0	48.0749	0.294706	0.294484	0.000301731	3	7.07754e-06	8.88549e-08
2	0	0	1	0	48.1749	0.289706	0.289507	0.000280052	3	7.10641e-06	8.10769e-08
2	0	0	1	0	48.2749	0.284705	0.284505	0.000264437	3	7.13349e-06	7.52336e-08
2	0	0	1	0	48.3749	0.279705	0.279526	0.000252167	3	7.15918e-06	7.04873e-08
2	0	0	1	0	48.4749	0.274705	0.274556	0.000242507	3	7.18371e-06	6.65817e-08
2	0	0	1	0	48.5749	0.269705	0.269561	0.000232857	3	7.20728e-06	6.27691e-08
2	0	0	1	0	48.6749	0.264705	0.264546	0.000224961	3	7.22999e-06	5.95127e-08
2	0	0	1	0	48.7749	0.259704	0.259553	0.000217942	3	7.25196e-06	5.65674e-08
2	0	0	1	0	48.8749	0.254704	0.254496	0.000211307	3	7.27324e-06	5.37769e-08
2	0	0	1	0	48.9749	0.249704	0.249578	0.000206022	3	7.29393e-06	5.14186e-08
2	0	0	1	0	49.0749	0.244704	0.244504	0.000199493	3	7.31408e-06	4.87768e-08
2	0	0	1	0	49.1749	0.239703	0.239519	0.000195558	3	7.3337e-06	4.68398e-08
2	0	0	1	0	49.2749	0.234703	0.234506	0.000191338	3	7.35285e-06	4.48698e-08
2	0	0	1	0	49.3749	0.229703	0.229536	0.000185906	3	7.37154e-06	4.26721e-08
2	0	0	1	0	49.4749	0.224703	0.22458	0.000180681	3	7.38981e-06	4.05773e-08
2	0	0	1	0	49.5749	0.219703	0.219477	0.000179369	3	7.40767e-06	3.93674e-08
2	0	0	1	0	49.6749	0.214702	0.21452	0.000173937	3	7.42513e-06	3.7313e-08
2	0	0	1	0	49.7749	0.209702	0.209519	0.000169521	3	7.44223e-06	3.55178e-08
2	0	0	1	0	49.8749	0.204702	0.204514	0.000167677	3	7.45896e-06	3.42922e-08
2	0	0	1	0	49.9749	0.199702	0.199505	0.000163968	3	7.47531e-06	3.27123e-08
2	0	0	1	0	50.0749	0.194702	0.194504	0.000159371	3	7.49132e-06	3.09984e-08
2	0	0	1	0	50.1749	0.189701	0.1895	0.000156072	3	7.50698e-06	2.95756e-08
2	0	0	1	0	50.2749	0.184701	0.184545	0.000153371	3	7.52229e-06	2.83039e-08
2	0	0	1	0	50.3749	0.179701	0.179524	0.000149338	3	7.53727e-06	2.68099e-08
2	0	0	1	0	50.4749	0.174701	0.1745	0.000145479	3	7.55187e-06	2.53861e-08
2	0	0	1	0	50.5749	0.169701	0.16952	0.000142884	3	7.56612e-06	2.42217e-08
2	0	0	1	0	50.6749	0.1647	0.16452	0.000137853	3	7.58002e-06	2.26797e-08
2	0	0	1	0	50.7749	0.1597	0.159529	0.000134822	3	7.59355e-06	2.15081e-08
2	0	0	1	0	50.8749	0.1547	0.154564	0.000131544	3	7.6067e-06	2.03319e-08
2	0	0	1	0	50.9749	0.1497	0.149495	0.000127882	3	7.61941e-06	1.91177e-08
2	0	0	0	0	51.0751	0.1447	0.144482	0.000122772	3	7.63175e-06	1.77383e-08
2	0	0	0	0	51.1751	0.139699	0.139537	0.000116192	3	7.6436e-06	1.6213e-08
2	0	0	0	0	51.2751	0.134699	0.134517	0.000112594	3	7.65494e-06	1.51457e-08
2	0	0	0	0	51.3751	0.129699	0.12955	0.000106127	3	7.66571e-06	1.37488e-08
2	0	0	0	0	51.4751	0.124699	0.124509	9.87699e-05	3	7.67583e-06	1.22978e-08
2	0	0	0	0	51.5751	0.119699	0.119511	9.05367e-05	3	7.6852e-06	1.08201e-08
2	0	0	0	0	51.6751	0.114698	0.114525	8.19026e-05	3	7.69369e-06	9.37989e-09
2	0	0	0	0	51.7751	0.109698	0.109516	6.90926e-05	3	7.7011e-06	7.56674e-09
2	0	0	0	0	51.8751	0.104698	0.104549	5.70529e-05	3	7.70725e-06	5.96484e-09
2	0	0	0	0	51.9751	0.0996979	0.0995391	3.73788e-05	3	7.71183e-06	3.72065e-09
2	0	0	0	0	52.0751	0.0946977	0.0945862	1.66554e-05	3	7.71448e-06	1.57537e-09
2	0	0	0	0	52.1751	0.0896975	0.0895114	-8.18364e-06	3	7.71474e-06	-7.32529e-10
2	0	0	0	0	52.2751	0.0846973	0.0845606	-4.29481e-05	3	7.71205e-06	-3.63171e-09
2	0	0	0	0	52.3751	0.0796971	0.0794879	-8.15968e-05	3	7.70574e-06	-6.48596e-09
2	0	0	0	0	52.4751	0.0746969	0.0745742	-0.000130683	3	7.69501e-06	-9.7456e-09
2	0	0	0	0	52.5751	0.0696967	0.0695651	-0.000188109	3	7.679e-06	-1.30858e-08
2	0	0	0	0	52.6751	0.0646964	0.0645804	-0.000253902	3	7.65683e-06	-1.63971e-08
2	0	0	0	0	52.7751	0.0596963	0.0595385	-0.000325958	3	7.62763e-06	-1.94071e-08
2	0	0	0	0	52.8751	0.0546961	0.0545389	-0.000406276	3	7.59083e-06	-2.21579e-08
2	0	0	0	0	52.9751	0.0496959	0.0494853	-0.000486563	3	7.54602e-06	-2.40777e-08
2	0	0	0	0	53.0751	0.0446957	0.0444879	-0.000561059	3	7.49339e-06	-2.49603e-08
2	0	0	0	0	53.1751	0.0396955	0.0395498	-0.000627313	3	7.43366e-06	-2.48101e-08
2	0	0	0	0	53.2751	0.0346953	0.0345514	-0.000678377	3	7.368e-06	-2.34389e-08
2	0	0	0	0	53.3751	0.0296951	0.0295412	-0.000714631	3	7.29807e-06	-2.11111e-08
2	0	0	0	0	53.4751	0.0246949	0.0245682	-0.000730292	3	7.22567e-06	-1.79419e-08
2	0	0	0	0	53.5751	0.0196946	0.0195824	-0.00072816	3	7.15255e-06	-1.42591e-08
2	0	0	0	0	53.6751	0.0146944	0.0145807	-0.000712458	3	7.08027e-06	-1.03882e-08
2	0	0	0	0	53.7751	0.00969425	0.00952818	-0.000689246	3	7.00994e-06	-6.56726e-09
2	0	0	0	0	53.8751	0.00469405	0.00452333	-0.000659475	3	6.94233e-06	-2.98302e-09
2	0	0	0	0	53.9751	-0.000306156	-0.000491057	-0.00062617	3	6.87783e-06	3.07485e-10
2	0	0	0	0	54.0751	-0.00530636	-0.00549485	-0.000596385	3	6.81643e-06	3.27704e-09
2	0	0	0	0	54.1751	-0.0103066	-0.0105029	-0.000564803	3	6.75821e-06	5.93206e-09
2	0	0	0	0	54.2751	-0.0153068	-0.0155024	-0.000538934	3	6.70291e-06	8.35479e-09
2	0	0	0	0	54.3751	-0.020307	-0.0204967	-0.000511269	3	6.65033e-06	1.04793e-08
2	0	0	0	0	54.4751	-0.0253072	-0.0254835	-0.000488212	3	6.60017e-06	1.24414e-08
2	0	0	0	0	54.5751	-0.0303074	-0.0304544	-0.000468317	3	6.55221e-06	1.42623e-08
2	0	0	0	0	54.6751	-0.0353076	-0.0354826	-0.000449913	3	6.5062e-06	1.59641e-08
2	0	0	0	0	54.7751	-0.0403078	-0.0404864	-0.000431661	3	6.46191e-06	1.74764e-08
2	0	0	0	0	54.8751	-0.045308	-0.0455177	-0.000417678	3	6.4192e-06	1.90118e-08
2	0	0	0	0	54.9751	-0.0503082	-0.0504802	-0.000405262	3	6.37793e-06	2.04577e-08
2	0	0	0	0	55.0751	-0.0553084	-0.0555009	-0.00039276	3	6.33789e-06	2.17985e-08
2	0	0	0	0	55.1751	-0.0603086	-0.0605185	-0.000383197	3	6.29903e-06	2.31905e-08
2	0	0	0	0	55.2751	-0.0653088	-0.0654916	-0.000371699	3	6.26119e-06	2.43432e-08
2	0	0	0	0	55.3751	-0.070309	-0.0704667	-0.000361984	3	6.22431e-06	2.55078e-08
2	0	0	0	0	55.4751	-0.0753092	-0.0755278	-0.000354809	3	6.18832e-06	2.67979e-08
2	0	0	0	0	55.5751	-0.0803094	-0.080487	-0.000346201	3	6.15312e-06	2.78647e-08
2	0	0	0	0	55.6751	-0.0853096	-0.0855035	-0.000338938	3	6.11868e-06	2.89804e-08
2	0	0	0	0	55.7751	-0.0903098	-0.090484	-0.000333674	3	6.08494e-06	3.01921e-08
2	0	0	0	0	55.8751	-0.09531	-0.0955503	-0.000327813	3	6.05185e-06	3.13226e-08
2	0	0	1	0	55.9753	-0.10031	-0.10051	-0.000320195	3	6.01931e-06	3.21826e-08
2	0	0	1	0	56.0753	-0.10531	-0.10551	-0.00031415	3	5.98739e-06	3.3146e-08
2	0	0	1	0	56.1753	-0.110311	-0.110498	-0.000309745	3	5.956e-06	3.42262e-08
2	0	0	1	0	56.2753	-0.115311	-0.115432	-0.000306461	3	5.92511e-06	3.53754e-08
2	0	0	1	0	56.3753	-0.120311	-0.120529	-0.000300443	3	5.89464e-06	3.62121e-08
2	0	0	1	0	56.4753	-0.125311	-0.125496	-0.00029596	3	5.86461e-06	3.71416e-08
2	0	0	1	0	56.5753	-0.130311	-0.130483	-0.000291946	3	5.83497e-06	3.80939e-08
2	0	0	1	0	56.6753	-0.135312	-0.135457	-0.000288995	3	5.80571e-06	3.91462e-08
2	0	0	1	0	56.7753	-0.140312	-0.140467	-0.000287234	3	5.7768e-06	4.03468e-08
2	0	0	1	0	56.8753	-0.145312	-0.145455	-0.00028307	3	5.74819e-06	4.11739e-08
2	0	0	1	0	56.9753	-0.150312	-0.150451	-0.000279191	3	5.71989e-06	4.20046e-08
2	0	0	1	0	57.0753	-0.155312	-0.155502	-0.000277064	3	5.69186e-06	4.30842e-08
2	0	0	1	0	57.1753	-0.160313	-0.160458	-0.00027465	3	5.66409e-06	4.40696e-08
2	0	0	1	0	57.2753	-0.165313	-0.165431	-0.000272225	3	5.63653e-06	4.50343e-08
2	0	0	1	0	57.3753	-0.170313	-0.170439	-0.000269951	3	5.60928e-06	4.60101e-08
2	0	0	1	0	57.4753	-0.175313	-0.175446	-0.000269633	3	5.58214e-06	4.7306e-08
2	0	0	1	0	57.5753	-0.180313	-0.1805	-0.000267936	3	5.55514e-06	4.83625e-08
2	0	0	1	0	57.6753	-0.185314	-0.185445	-0.000267416	3	5.52823e-06	4.95909e-08
2	0	0	1	0	57.7753	-0.190314	-0.190455	-0.000266987	3	5.50142e-06	5.0849e-08
2	0	0	1	0	57.8753	-0.195314	-0.195469	-0.000266288	3	5.47465e-06	5.2051e-08
2	1	0	1	1	57.9692	-0.199989	-0.200406	-0.000263877	3	5.44955e-06	5.28825e-08
2	1	0	0	1	58.0647	-0.195214	-0.195335	-0.000122998	3	5.4367e-06	2.40257e-08
2	1	0	0	1	58.1647	-0.190214	-0.190311	-0.000108492	3	5.42553e-06	2.06472e-08
2	1	0	0	1	58.2647	-0.185214	-0.185364	-9.67154e-05	3	5.41565e-06	1.79276e-08
2	1	0	0	1	58.3647	-0.180213	-0.180338	-8.60976e-05	3	5.40679e-06	1.55267e-08
2	1	0	0	1	58.4647	-0.175213	-0.175311	-8.06465e-05	3	5.39877e-06	1.41382e-08
2	1	0	0	1	58.5647	-0.170213	-0.170327	-7.36392e-05	3	5.39145e-06	1.25428e-08
2	1	0	0	1	58.6647	-0.165213	-0.165292	-6.6586e-05	3	5.38479e-06	1.10061e-08
2	1	0	0	1	58.7647	-0.160213	-0.160302	-6.20782e-05	3	5.37867e-06	9.95123e-09
2	1	0	0	1	58.8647	-0.155212	-0.155274	-5.66164e-05	3	5.37307e-06	8.79104e-09
2	1	0	0	1	58.9647	-0.150212	-0.150325	-5.29194e-05	3	5.36797e-06	7.9551e-09
2	1	0	0	1	59.0647	-0.145212	-0.145309	-4.84698e-05	3	5.36328e-06	7.04312e-09
2	1	0	0	1	59.1647	-0.140212	-0.140259	-4.34851e-05	3	5.359e-06	6.09917e-09
2	1	0	0	1	59.2647	-0.135212	-0.135324	-3.94806e-05	3	5.35509e-06	5.34268e-09
2	1	0	0	1	59.3647	-0.130211	-0.130347	-3.76542e-05	3	5.35154e-06	4.9081e-09
2	1	0	0	1	59.4647	-0.125211	-0.125354	-3.32294e-05	3	5.34834e-06	4.16542e-09
2	1	0	0	1	59.5647	-0.120211	-0.120331	-2.90695e-05	3	5.34546e-06	3.49795e-09
2	1	0	0	1	59.6647	-0.115211	-0.11528	-2.5542e-05	3	5.3429e-06	2.94449e-09
2	1	0	0	1	59.7647	-0.110211	-0.110345	-2.54466e-05	3	5.34061e-06	2.80792e-09
2	1	0	0	1	59.8647	-0.10521	-0.105308	-2.15994e-05	3	5.33861e-06	2.27459e-09
2	1	0	0	1	59.9647	-0.10021	-0.100346	-1.83086e-05	3	5.33687e-06	1.8372e-09
2	1	0	1	1	60.0649	-0.09521	-0.0953277	-1.606e-05	3	5.33538e-06	1.53096e-09
2	1	0	1	1	60.1649	-0.0902098	-0.0903557	-1.45639e-05	3	5.33415e-06	1.31593e-09
2	1	0	1	1	60.2649	-0.0852096	-0.0853392	-1.31914e-05	3	5.33312e-06	1.12574e-09
2	1	0	1	1	60.3649	-0.0802094	-0.0802803	-9.88821e-06	3	5.33224e-06	7.93828e-10
2	1	0	1	1	60.4649	-0.0752092	-0.0753825	-6.69633e-06	3	5.33178e-06	5.04786e-10
2	1	0	0	1	60.4874	-0.0740841	-0.0743107	-6.32009e-06	3	5.33167e-06	4.6965e-10