File: AutoAnalysis Examples/EC/C000A-0ppb-A_C01.mpt
EC-Lab ASCII FILE
Nb header lines : 59

Cyclic Voltammetry

Run on channel : 1 (SN 22398)
User :
CE vs. WE compliance from -10 V to 10 V
Electrode connection : standard
Ewe ctrl range : min = -1.00 V, max = 1.00 V
Safety Limits :
	Ewe min = -2.00 V
	Ewe max = 2.00 V
	|I| = 50.000 mA
	for t > 10 ms
Acquisition started on : 11/21/2018 10:36:13
Technique started on : 11/21/2018 10:36:13
Saved on :
	File : C000A-0ppb-A_C01.mpr
	Directory : \\ECCOMPUTER\Users\Lab User\Google Drive\Electrochemical Data\EC-Lab\Data\FREDsense\Tim\2018.11.21 - EC comparison to High Throughput\
	Host : 172.16.1.30
Device : SP-50 (SN 0301030103010301)
Address : USB
EC-Lab for windows v11.02 (software)
Internet server v11.02 (firmware)
Command interpretor v11.02 (firmware)
Electrode material : Au/Pd
Initial state :
Electrolyte : NaCl (0.2M)
Comments : Fe(CN)63-/Fe(CN)64- 5.10-3 M
Reference electrode : SCE Saturated Calomel Electrode (0.241 V)
Electrode surface area : 0.001 cm²
Characteristic mass : 0.001 g
Equivalent Weight : 0.000 g/eq.
Density : 0.000 g/cm3
Cycle Definition : Charge/Discharge alternance
Ei (V)              -0.100
vs.                 Ref
dE/dt               50.000
dE/dt unit          mV/s
E1 (V)              0.300
vs.                 Ref
Step percent        50
N                   10
E range min (V)     -1.000
E range max (V)     1.000
I Range             Auto
I Range min         Unset
I Range max         Unset
I Range init        Unset
Bandwidth           5
E2 (V)              -0.200
vs.                 Ref
nc cycles           2
Reverse Scan        1
Ef (V)              0.000
vs.                 Eoc

mode	ox/red	error	control changes	counter inc.	time/s	control/V	Ewe/V	<I>/mA	cycle number	(Q-Qo)/C	P/W
2	1	0	1	0	0.000000000000000E+000	-0.0984789	-0.0986253	-7.8141e-05	1	0.0000000E+000	7.70668e-09
2	1	0	0	0	0.111	-0.0929286	-0.093289	-1.02414e-05	1	2.98955e-09	9.55411e-10
2	1	0	1	0	0.2265	-0.0871534	-0.0873816	3.93713e-05	1	8.59896e-09	-3.44033e-09
2	1	0	1	0	0.3265	-0.0821531	-0.0824362	4.55784e-05	1	1.32594e-08	-3.75731e-09
2	1	0	1	0	0.4265	-0.0771529	-0.0774016	5.01993e-05	1	1.83487e-08	-3.88551e-09
2	1	0	1	0	0.5265	-0.0721527	-0.0723501	5.30202e-05	1	2.37496e-08	-3.83602e-09
2	1	0	1	0	0.6265	-0.0671525	-0.0674237	5.51876e-05	1	2.94003e-08	-3.72095e-09
2	1	0	1	0	0.7265	-0.0621522	-0.0624157	5.64311e-05	1	3.52848e-08	-3.52219e-09
2	1	0	1	0	0.8265	-0.057152	-0.0573981	5.65671e-05	1	4.13492e-08	-3.24685e-09
2	1	0	1	0	0.9265	-0.0521518	-0.05237	6.38306e-05	1	4.76239e-08	-3.3428e-09
2	1	0	1	0	1.0265	-0.0471515	-0.0473746	6.17798e-05	1	5.40859e-08	-2.92679e-09
2	1	0	1	0	1.1265	-0.0421513	-0.0423581	6.30286e-05	1	6.07222e-08	-2.66977e-09
2	1	0	1	0	1.2265	-0.0371511	-0.0373533	6.54945e-05	1	6.75818e-08	-2.44643e-09
2	1	0	1	0	1.3265	-0.0321509	-0.0323802	6.8886e-05	1	7.46466e-08	-2.23054e-09
2	1	0	1	0	1.4265	-0.0271506	-0.0274231	7.23428e-05	1	8.19764e-08	-1.98386e-09
2	1	0	1	0	1.5265	-0.0221504	-0.0223949	7.43706e-05	1	8.96203e-08	-1.66553e-09
2	1	0	1	0	1.6265	-0.0171502	-0.0173593	7.97546e-05	1	9.76282e-08	-1.38449e-09
2	1	0	1	0	1.7265	-0.0121499	-0.0124181	8.45115e-05	1	1.06096e-07	-1.04947e-09
2	1	0	1	0	1.8265	-0.00714969	-0.00739416	9.06939e-05	1	1.1511e-07	-6.70605e-10
2	1	0	1	0	1.9265	-0.00214946	-0.00238719	9.79573e-05	1	1.24848e-07	-2.33843e-10
2	1	0	1	0	2.0265	0.00285076	0.00267278	0.000108992	1	1.35576e-07	2.91312e-10
2	1	0	1	0	2.1265	0.00785099	0.00770519	0.000122009	1	1.47482e-07	9.401e-10
2	1	0	1	0	2.2265	0.0128512	0.0126973	0.000140395	1	1.60971e-07	1.78264e-09
2	1	0	1	0	2.3265	0.0178514	0.0176237	0.000164757	1	1.7651e-07	2.90363e-09
2	1	0	1	0	2.4265	0.0228517	0.0226657	0.000194417	1	1.9467e-07	4.40658e-09
2	1	0	1	0	2.5265	0.0278519	0.0277288	0.000230547	1	2.16185e-07	6.39278e-09
2	1	0	1	0	2.6265	0.0328521	0.0326584	0.000276332	1	2.41801e-07	9.02455e-09
2	1	0	1	0	2.7265	0.0378524	0.0376378	0.000330878	1	2.72416e-07	1.24535e-08
2	1	0	1	0	2.8265	0.0428526	0.0426904	0.000394012	1	3.08912e-07	1.68205e-08
2	1	0	1	0	2.9265	0.0478528	0.0476507	0.000462559	1	3.52041e-07	2.20413e-08
2	1	0	1	0	3.0265	0.052853	0.0526481	0.000538443	1	4.02444e-07	2.8348e-08
2	1	0	1	0	3.1265	0.0578533	0.0576074	0.000611936	1	4.60264e-07	3.5252e-08
2	1	0	1	0	3.2265	0.0628535	0.0626726	0.000680863	1	5.25323e-07	4.26715e-08
2	1	0	1	0	3.3265	0.0678537	0.0676595	0.000743911	1	5.97002e-07	5.03326e-08
2	1	0	1	0	3.4265	0.0728539	0.0726124	0.000792564	1	6.74236e-07	5.755e-08
2	1	0	1	0	3.5265	0.0778542	0.0776649	0.000827929	1	7.55727e-07	6.43011e-08
2	1	0	1	0	3.6265	0.0828544	0.0827185	0.000848458	1	8.40019e-07	7.01832e-08
2	1	0	1	0	3.7265	0.0878546	0.0876958	0.000855967	1	9.25708e-07	7.50648e-08
2	1	0	1	0	3.8265	0.0928549	0.0926731	0.000853017	1	1.01159e-06	7.90518e-08
2	1	0	1	0	3.9265	0.0978551	0.0976228	0.000840863	1	1.09666e-06	8.20874e-08
2	1	0	1	0	4.0265	0.102855	0.102634	0.000822817	1	1.18025e-06	8.4449e-08
2	1	0	1	0	4.1265	0.107856	0.107687	0.000803071	1	1.2619e-06	8.64799e-08
2	1	0	1	0	4.2265	0.112856	0.112649	0.000781173	1	1.34138e-06	8.79983e-08
2	1	0	1	0	4.3265	0.117856	0.117649	0.000757157	1	1.41862e-06	8.90784e-08
2	1	0	0	0	4.4267	0.122856	0.122707	0.000734819	1	1.49377e-06	9.01678e-08
2	1	0	0	0	4.5267	0.127856	0.127623	0.000716168	1	1.56664e-06	9.13997e-08
2	1	0	0	0	4.6267	0.132857	0.132628	0.000696278	1	1.63752e-06	9.2346e-08
2	1	0	0	0	4.7267	0.137857	0.137632	0.00067778	1	1.70655e-06	9.32842e-08
2	1	0	0	0	4.8267	0.142857	0.142731	0.000660683	1	1.7739e-06	9.43001e-08
2	1	0	0	0	4.9267	0.147857	0.147637	0.00064858	1	1.83972e-06	9.57547e-08
2	1	0	0	0	5.0267	0.152858	0.152674	0.000638116	1	1.90416e-06	9.74237e-08
2	1	0	0	0	5.1267	0.157858	0.157631	0.000621687	1	1.96737e-06	9.79972e-08
2	1	0	0	0	5.2267	0.162858	0.162675	0.0006118	1	2.02943e-06	9.95247e-08
2	1	0	0	0	5.3267	0.167858	0.167682	0.000602465	1	2.0905e-06	1.01023e-07
2	1	0	0	0	5.4267	0.172859	0.172706	0.00059371	1	2.15064e-06	1.02537e-07
2	1	0	0	0	5.5267	0.177859	0.177668	0.000585878	1	2.20996e-06	1.04092e-07
2	1	0	0	0	5.6267	0.182859	0.182626	0.000577302	1	2.26856e-06	1.0543e-07
2	1	0	0	0	5.7267	0.187859	0.187651	0.000571998	1	2.32651e-06	1.07336e-07
2	1	0	0	0	5.8267	0.192859	0.1927	0.000568933	1	2.38389e-06	1.09633e-07
2	1	0	0	0	5.9267	0.19786	0.197691	0.000563703	1	2.44077e-06	1.11439e-07
2	1	0	0	0	6.0267	0.20286	0.202692	0.000559101	1	2.49717e-06	1.13325e-07
2	1	0	0	0	6.1267	0.20786	0.207699	0.000556348	1	2.55322e-06	1.15553e-07
2	1	0	0	0	6.2267	0.21286	0.212696	0.000552048	1	2.60894e-06	1.17419e-07
2	1	0	0	0	6.3267	0.217861	0.217703	0.000550292	1	2.66438e-06	1.19801e-07
2	1	0	0	0	6.4267	0.222861	0.222692	0.000546334	1	2.71959e-06	1.21664e-07
2	1	0	0	0	6.5267	0.227861	0.227699	0.000546943	1	2.77462e-06	1.24539e-07
2	1	0	0	0	6.6267	0.232861	0.232685	0.000543801	1	2.82951e-06	1.26534e-07
2	1	0	0	0	6.7267	0.237861	0.237651	0.000543654	1	2.88428e-06	1.292e-07
2	1	0	0	0	6.8267	0.242862	0.242661	0.000543534	1	2.93899e-06	1.31894e-07
2	1	0	0	0	6.9267	0.247862	0.247667	0.0005439	1	2.99366e-06	1.34706e-07
2	1	0	0	0	7.0267	0.252862	0.252731	0.00054364	1	3.04832e-06	1.37395e-07
2	1	0	0	0	7.1267	0.257862	0.257787	0.000543663	1	3.10305e-06	1.40149e-07
2	1	0	0	0	7.2267	0.262863	0.262698	0.000544137	1	3.15782e-06	1.42944e-07
2	1	0	0	0	7.3267	0.267863	0.267691	0.000546032	1	3.21267e-06	1.46168e-07
2	1	0	0	0	7.4267	0.272863	0.272686	0.000548261	1	3.26766e-06	1.49503e-07
2	1	0	0	0	7.5267	0.277863	0.277691	0.000548026	1	3.32277e-06	1.52182e-07
2	1	0	0	0	7.6267	0.282863	0.282737	0.00055066	1	3.3781e-06	1.55692e-07
2	1	0	0	0	7.7267	0.287864	0.28767	0.000553617	1	3.4336e-06	1.59259e-07
2	1	0	0	0	7.8267	0.292864	0.292735	0.000555872	1	3.48933e-06	1.62723e-07
2	1	0	0	0	7.9267	0.297864	0.297709	0.000558317	1	3.54531e-06	1.66216e-07
2	0	0	1	0	8.0153	0.297714	0.297467	0.000427975	1	3.58964e-06	1.27308e-07
2	0	0	1	0	8.1153	0.292714	0.292544	0.000381277	1	3.6297e-06	1.1154e-07
2	0	0	1	0	8.2153	0.287714	0.287518	0.000352249	1	3.66616e-06	1.01278e-07
2	0	0	1	0	8.3153	0.282714	0.282554	0.000329634	1	3.69999e-06	9.31396e-08
2	0	0	1	0	8.4153	0.277713	0.277493	0.000312087	1	3.73178e-06	8.66021e-08
2	0	0	1	0	8.5153	0.272713	0.272495	0.000300899	1	3.76215e-06	8.19933e-08
2	0	0	1	0	8.6153	0.267713	0.267527	0.00028566	1	3.79132e-06	7.64218e-08
2	0	0	1	0	8.7153	0.262713	0.262527	0.000271647	1	3.81898e-06	7.13146e-08
2	0	0	1	0	8.8153	0.257712	0.257509	0.00026164	1	3.84537e-06	6.73747e-08
2	0	0	1	0	8.9153	0.252712	0.252494	0.000251372	1	3.87071e-06	6.34699e-08
2	0	0	1	0	9.0153	0.247712	0.247536	0.000243185	1	3.89524e-06	6.01972e-08
2	0	0	1	0	9.1153	0.242712	0.242464	0.000236524	1	3.91899e-06	5.73485e-08
2	0	0	1	0	9.2153	0.237711	0.237467	0.000227856	1	3.94205e-06	5.41084e-08
2	0	0	1	0	9.3153	0.232711	0.232521	0.000223133	1	3.96448e-06	5.18831e-08
2	0	0	1	0	9.4153	0.227711	0.227464	0.000217062	1	3.98628e-06	4.93738e-08
2	0	0	1	0	9.5153	0.222711	0.222475	0.000212439	1	4.00752e-06	4.72624e-08
2	0	0	1	0	9.6153	0.217711	0.21746	0.000207465	1	4.02825e-06	4.51153e-08
2	0	0	1	0	9.7153	0.21271	0.212525	0.000201991	1	4.04846e-06	4.29281e-08
2	0	0	1	0	9.8153	0.20771	0.207504	0.000197036	1	4.06819e-06	4.08858e-08
2	0	0	1	0	9.9153	0.20271	0.202479	0.000192286	1	4.08747e-06	3.8934e-08
2	0	0	1	0	10.0153	0.19771	0.197483	0.000187102	1	4.10631e-06	3.69494e-08
2	0	0	1	0	10.1153	0.192709	0.192502	0.000183868	1	4.12473e-06	3.53949e-08
2	0	0	1	0	10.2153	0.187709	0.187543	0.000179913	1	4.1427e-06	3.37414e-08
2	0	0	1	0	10.3153	0.182709	0.182523	0.000175529	1	4.16025e-06	3.2038e-08
2	0	0	1	0	10.4153	0.177709	0.177526	0.000171991	1	4.17744e-06	3.05327e-08
2	0	0	1	0	10.5153	0.172708	0.172516	0.00016679	1	4.19423e-06	2.87739e-08
2	0	0	1	0	10.6153	0.167708	0.1675	0.000163234	1	4.21055e-06	2.73418e-08
2	0	0	1	0	10.7153	0.162708	0.162462	0.000157667	1	4.22641e-06	2.56149e-08
2	0	0	1	0	10.8153	0.157708	0.157481	0.000153138	1	4.24181e-06	2.41163e-08
2	0	0	1	0	10.9153	0.152708	0.15251	0.000145261	1	4.25672e-06	2.21538e-08
2	0	0	1	0	11.0153	0.147707	0.147495	0.000144502	1	4.27121e-06	2.13132e-08
2	0	0	1	0	11.1153	0.142707	0.142476	0.000139469	1	4.28517e-06	1.9871e-08
2	0	0	1	0	11.2153	0.137707	0.137522	0.000134241	1	4.29858e-06	1.84611e-08
2	0	0	1	0	11.3153	0.132707	0.132503	0.000126112	1	4.31141e-06	1.67103e-08
2	0	0	1	0	11.4153	0.127706	0.127476	0.000119424	1	4.32356e-06	1.52238e-08
2	0	0	1	0	11.5153	0.122706	0.122426	0.000112124	1	4.33495e-06	1.37269e-08
2	0	0	0	0	11.6155	0.117706	0.117505	0.000102061	1	4.34551e-06	1.19926e-08
2	0	0	0	0	11.7155	0.112706	0.112547	9.08034e-05	1	4.35503e-06	1.02196e-08
2	0	0	0	0	11.8155	0.107706	0.107462	7.79829e-05	1	4.36336e-06	8.38021e-09
2	0	0	0	0	11.9155	0.102705	0.102467	6.30145e-05	1	4.37028e-06	6.4569e-09
2	0	0	0	0	12.0155	0.0977051	0.0975087	4.41229e-05	1	4.3755e-06	4.30236e-09
2	0	0	0	0	12.1155	0.0927049	0.0925271	2.12922e-05	1	4.37863e-06	1.97011e-09
2	0	0	0	0	12.2155	0.0877046	0.0875329	-6.60978e-06	1	4.37921e-06	-5.78573e-10
2	0	0	0	0	12.3155	0.0827044	0.0824453	-4.17363e-05	1	4.37668e-06	-3.44097e-09
2	0	0	0	0	12.4155	0.0777042	0.0774628	-8.2079e-05	1	4.37041e-06	-6.35807e-09
2	0	0	0	0	12.5155	0.072704	0.0724738	-0.000130773	1	4.3596e-06	-9.47764e-09
2	0	0	0	0	12.6155	0.0677037	0.0675241	-0.000187344	1	4.34357e-06	-1.26502e-08
2	0	0	0	0	12.7155	0.0627035	0.0625193	-0.000250971	1	4.3215e-06	-1.56905e-08
2	0	0	0	0	12.8155	0.0577033	0.0575356	-0.000320749	1	4.2927e-06	-1.84545e-08
2	0	0	0	0	12.9155	0.052703	0.0524799	-0.00039359	1	4.25679e-06	-2.06556e-08
2	0	0	0	0	13.0155	0.0477028	0.0474835	-0.000466314	1	4.21357e-06	-2.21422e-08
2	0	0	0	0	13.1155	0.0427026	0.0424416	-0.000528499	1	4.16353e-06	-2.24303e-08
2	0	0	0	0	13.2155	0.0377024	0.0374251	-0.000585875	1	4.1075e-06	-2.19264e-08
2	0	0	0	0	13.3155	0.0327021	0.0324965	-0.000626085	1	4.04672e-06	-2.03456e-08
2	0	0	0	0	13.4155	0.0277019	0.0275044	-0.000647693	1	3.98277e-06	-1.78144e-08
2	0	0	0	0	13.5155	0.0227017	0.0224402	-0.000655668	1	3.91727e-06	-1.47133e-08
2	0	0	0	0	13.6155	0.0177014	0.0175954	-0.000649433	1	3.85174e-06	-1.14271e-08
2	0	0	0	0	13.7155	0.0127012	0.0124835	-0.000634147	1	3.78741e-06	-7.91638e-09
2	0	0	0	0	13.8155	0.00770099	0.00746382	-0.000608599	1	3.72513e-06	-4.54248e-09
2	0	0	0	0	13.9155	0.00270076	0.00243777	-0.000580731	1	3.66545e-06	-1.41569e-09
2	0	0	0	0	14.0155	-0.00229947	-0.00254587	-0.000552098	1	3.60858e-06	1.40557e-09
2	0	0	0	0	14.1155	-0.0072997	-0.00751044	-0.000523535	1	3.55463e-06	3.93198e-09
2	0	0	0	0	14.2155	-0.0122999	-0.0125651	-0.000496424	1	3.50349e-06	6.23763e-09
2	0	0	0	0	14.3155	-0.0173002	-0.0175519	-0.000471114	1	3.45496e-06	8.26896e-09
2	0	0	0	0	14.4155	-0.0223004	-0.0225144	-0.000448237	1	3.40882e-06	1.00918e-08
2	0	0	0	0	14.5155	-0.0273006	-0.027533	-0.000428346	1	3.36486e-06	1.17936e-08
2	0	0	0	0	14.6155	-0.0323009	-0.0325972	-0.000409535	1	3.32286e-06	1.33497e-08
2	0	0	0	0	14.7155	-0.0373011	-0.0375501	-0.000391032	1	3.2826e-06	1.46833e-08
2	0	0	0	0	14.8155	-0.0423013	-0.0425476	-0.000376714	1	3.24391e-06	1.60283e-08
2	0	0	0	0	14.9155	-0.0473015	-0.0475418	-0.000365093	1	3.20662e-06	1.73572e-08
2	0	0	0	0	15.0155	-0.0523018	-0.052518	-0.000356109	1	3.17059e-06	1.87021e-08
2	0	0	0	0	15.1155	-0.057302	-0.0575738	-0.000342356	1	3.13568e-06	1.97107e-08
2	0	0	0	0	15.2155	-0.0623022	-0.0625956	-0.000331212	1	3.10182e-06	2.07324e-08
2	0	0	0	0	15.3155	-0.0673025	-0.0675453	-0.00032389	1	3.06888e-06	2.18772e-08
2	0	0	0	0	15.4155	-0.0723027	-0.0725491	-0.000314344	1	3.03681e-06	2.28054e-08
2	0	0	0	0	15.5155	-0.0773029	-0.0775179	-0.000308685	1	3.00549e-06	2.39286e-08
2	0	0	0	0	15.6155	-0.0823032	-0.0825493	-0.00030083	1	2.97489e-06	2.48333e-08
2	0	0	0	0	15.7155	-0.0873034	-0.0875817	-0.000294416	1	2.94492e-06	2.57854e-08
2	0	0	0	0	15.8155	-0.0923036	-0.0925494	-0.00028827	1	2.91558e-06	2.66793e-08
2	0	0	0	0	15.9155	-0.0973038	-0.0975034	-0.000282129	1	2.88685e-06	2.75085e-08
2	0	0	1	0	16.0157	-0.102304	-0.102556	-0.000277669	1	2.85858e-06	2.84766e-08
2	0	0	1	0	16.1157	-0.107304	-0.107463	-0.000273207	1	2.83082e-06	2.93597e-08
2	0	0	1	0	16.2157	-0.112305	-0.112501	-0.000268453	1	2.80349e-06	3.02013e-08
2	0	0	1	0	16.3157	-0.117305	-0.11757	-0.000265503	1	2.77659e-06	3.12154e-08
2	0	0	1	0	16.4157	-0.122305	-0.122555	-0.000262728	1	2.75007e-06	3.21987e-08
2	0	0	1	0	16.5157	-0.127305	-0.127531	-0.000257813	1	2.72392e-06	3.28792e-08
2	0	0	1	0	16.6157	-0.132305	-0.132508	-0.00025441	1	2.69808e-06	3.37113e-08
2	0	0	1	0	16.7157	-0.137306	-0.137543	-0.000251884	1	2.67256e-06	3.4645e-08
2	0	0	1	0	16.8157	-0.142306	-0.142528	-0.000248316	1	2.64732e-06	3.5392e-08
2	0	0	1	0	16.9157	-0.147306	-0.147464	-0.000247094	1	2.62234e-06	3.64374e-08
2	0	0	1	0	17.0157	-0.152306	-0.152515	-0.000244257	1	2.5976e-06	3.7253e-08
2	0	0	1	0	17.1157	-0.157307	-0.157532	-0.000243015	1	2.57303e-06	3.82827e-08
2	0	0	1	0	17.2157	-0.162307	-0.162561	-0.000242295	1	2.54869e-06	3.93877e-08
2	0	0	1	0	17.3157	-0.167307	-0.167568	-0.000240694	1	2.5245e-06	4.03327e-08
2	0	0	1	0	17.4157	-0.172307	-0.172606	-0.000238795	1	2.50045e-06	4.12175e-08
2	0	0	1	0	17.5157	-0.177308	-0.177519	-0.000236239	1	2.47652e-06	4.19371e-08
2	0	0	1	0	17.6157	-0.182308	-0.182548	-0.000235289	1	2.45267e-06	4.29515e-08
2	0	0	1	0	17.7157	-0.187308	-0.187479	-0.000236114	1	2.42892e-06	4.42665e-08
2	0	0	1	0	17.8157	-0.192308	-0.192565	-0.000235128	1	2.40521e-06	4.52774e-08
2	0	0	1	0	17.9157	-0.197308	-0.197577	-0.000235167	1	2.3815e-06	4.64637e-08
2	1	0	0	1	18.0051	-0.198208	-0.198421	-0.000117711	1	2.3643e-06	2.33563e-08
2	1	0	0	1	18.1051	-0.193208	-0.193425	-9.50868e-05	1	2.35407e-06	1.83921e-08
2	1	0	0	1	18.2051	-0.188208	-0.188406	-8.08814e-05	1	2.34555e-06	1.52385e-08
2	1	0	0	1	18.3051	-0.183208	-0.183358	-7.10585e-05	1	2.33818e-06	1.30291e-08
2	1	0	0	1	18.4051	-0.178208	-0.178409	-6.30108e-05	1	2.33173e-06	1.12417e-08
2	1	0	0	1	18.5051	-0.173207	-0.173387	-5.58693e-05	1	2.32602e-06	9.68701e-09
2	1	0	0	1	18.6051	-0.168207	-0.168423	-4.84504e-05	1	2.32097e-06	8.16014e-09
2	1	0	0	1	18.7051	-0.163207	-0.16341	-4.29445e-05	1	2.31649e-06	7.01758e-09
2	1	0	0	1	18.8051	-0.158207	-0.158443	-4.0189e-05	1	2.31253e-06	6.36764e-09
2	1	0	0	1	18.9051	-0.153206	-0.15335	-3.49145e-05	1	2.30905e-06	5.35413e-09
2	1	0	0	1	19.0051	-0.148206	-0.148441	-2.99986e-05	1	2.30596e-06	4.45304e-09
2	1	0	0	1	19.1051	-0.143206	-0.14346	-2.54378e-05	1	2.30327e-06	3.6493e-09
2	1	0	0	1	19.2051	-0.138206	-0.138403	-2.36043e-05	1	2.30094e-06	3.2669e-09
2	1	0	0	1	19.3051	-0.133206	-0.133364	-1.9107e-05	1	2.29895e-06	2.54819e-09
2	1	0	0	1	19.4051	-0.128205	-0.128364	-1.72611e-05	1	2.29726e-06	2.2157e-09
2	1	0	0	1	19.5051	-0.123205	-0.123396	-1.30677e-05	1	2.29588e-06	1.6125e-09
2	1	0	0	1	19.6051	-0.118205	-0.118414	-1.13172e-05	1	2.29477e-06	1.34012e-09
2	1	0	0	1	19.7051	-0.113205	-0.113412	-7.71378e-06	1	2.29395e-06	8.74832e-10
2	1	0	0	1	19.8051	-0.108204	-0.108401	-5.88026e-06	1	2.29335e-06	6.37428e-10
2	1	0	0	1	19.9051	-0.103204	-0.103398	-2.16729e-06	1	2.293e-06	2.24093e-10
2	1	0	1	1	19.9953	-0.0987039	-0.0989027	-3.50799e-06	2	2.29288e-06	3.4695e-10
2	1	0	1	1	20.0953	-0.0937037	-0.0938841	-2.87208e-06	2	2.29296e-06	2.69643e-10
2	1	0	1	1	20.1953	-0.0887035	-0.0889217	5.79453e-07	2	2.29326e-06	-5.15259e-11
2	1	0	1	1	20.2953	-0.0837032	-0.0838627	1.45735e-06	2	2.29376e-06	-1.22218e-10
2	1	0	1	1	20.3953	-0.078703	-0.0789215	4.4355e-06	2	2.29444e-06	-3.50056e-10
2	1	0	1	1	20.4953	-0.0737028	-0.0738965	6.21602e-06	2	2.29533e-06	-4.59342e-10
2	1	0	1	1	20.5953	-0.0687025	-0.0688546	8.71724e-06	2	2.2964e-06	-6.00222e-10
2	1	0	1	1	20.6953	-0.0637023	-0.0639313	9.1606e-06	2	2.29764e-06	-5.8565e-10
2	1	0	1	1	20.7953	-0.0587021	-0.058865	1.1305e-05	2	2.29908e-06	-6.65469e-10
2	1	0	1	1	20.8953	-0.0537018	-0.0539259	1.3672e-05	2	2.30068e-06	-7.37274e-10
2	1	0	1	1	20.9953	-0.0487016	-0.0488818	1.45958e-05	2	2.30252e-06	-7.13469e-10
2	1	0	1	1	21.0953	-0.0437014	-0.0438929	1.65901e-05	2	2.30453e-06	-7.28185e-10
2	1	0	1	1	21.1953	-0.0387011	-0.0388445	1.91902e-05	2	2.30675e-06	-7.45434e-10
2	1	0	1	1	21.2953	-0.0337009	-0.033933	2.25605e-05	2	2.3092e-06	-7.65545e-10
2	1	0	1	1	21.3953	-0.0287007	-0.0288773	2.51059e-05	2	2.31191e-06	-7.24988e-10
2	1	0	1	1	21.4953	-0.0237005	-0.0238735	2.83684e-05	2	2.31496e-06	-6.77252e-10
2	1	0	1	1	21.5953	-0.0187002	-0.0188824	3.28179e-05	2	2.31834e-06	-6.19681e-10
2	1	0	1	1	21.6953	-0.0137	-0.0139549	3.83379e-05	2	2.32217e-06	-5.35003e-10
2	1	0	1	1	21.7953	-0.00869977	-0.00888754	4.44055e-05	2	2.32655e-06	-3.94656e-10
2	1	0	1	1	21.8953	-0.00369954	-0.00385831	5.11673e-05	2	2.33162e-06	-1.97419e-10
2	1	0	1	1	21.9953	0.00130069	0.00112216	6.22532e-05	2	2.33762e-06	6.9858e-11
2	1	0	1	1	22.0953	0.00630092	0.00608036	7.54782e-05	2	2.34473e-06	4.58935e-10
2	1	0	1	1	22.1953	0.0113011	0.0111372	9.03459e-05	2	2.35327e-06	1.0062e-09
2	1	0	1	1	22.2953	0.0163014	0.0161303	0.000111244	2	2.36369e-06	1.79441e-09
2	1	0	1	1	22.3953	0.0213016	0.0211193	0.000136968	2	2.37647e-06	2.89267e-09
2	1	0	1	1	22.4953	0.0263018	0.0260701	0.000171729	2	2.39222e-06	4.47699e-09
2	1	0	1	1	22.5953	0.0313021	0.031111	0.000210982	2	2.41162e-06	6.56385e-09
2	1	0	1	1	22.6953	0.0363023	0.0361084	0.000259371	2	2.43543e-06	9.36545e-09
2	1	0	1	1	22.7953	0.0413025	0.0410782	0.00031394	2	2.46445e-06	1.28961e-08
2	1	0	1	1	22.8953	0.0463027	0.0460884	0.000378973	2	2.49938e-06	1.74663e-08
2	1	0	1	1	22.9953	0.051303	0.0511388	0.00044478	2	2.54081e-06	2.27455e-08
2	1	0	1	1	23.0953	0.0563032	0.0561172	0.000513776	2	2.58909e-06	2.88316e-08
2	1	0	1	1	23.1953	0.0613034	0.0610817	0.000580812	2	2.64417e-06	3.5477e-08
2	1	0	1	1	23.2953	0.0663037	0.0661777	0.00064097	2	2.70569e-06	4.2418e-08
2	1	0	1	1	23.3953	0.0713039	0.0711656	0.000694865	2	2.77287e-06	4.94505e-08
2	1	0	1	1	23.4953	0.0763041	0.0761758	0.00073448	2	2.84466e-06	5.59496e-08
2	1	0	1	1	23.5953	0.0813043	0.0811223	0.000760361	2	2.91982e-06	6.16823e-08
2	1	0	1	1	23.6953	0.0863046	0.0861526	0.000774418	2	2.99701e-06	6.67181e-08
2	1	0	1	1	23.7953	0.0913048	0.0911617	0.000777241	2	3.07504e-06	7.08546e-08
2	1	0	1	1	23.8953	0.096305	0.0961952	0.000770548	2	3.15284e-06	7.4123e-08
2	1	0	1	1	23.9953	0.101305	0.101145	0.00075663	2	3.22956e-06	7.65293e-08
2	1	0	1	1	24.0953	0.106305	0.106125	0.000739717	2	3.30465e-06	7.85028e-08
2	1	0	1	1	24.1953	0.111306	0.111157	0.000716906	2	3.37775e-06	7.96889e-08
2	1	0	1	1	24.2953	0.116306	0.116128	0.000694245	2	3.44867e-06	8.0621e-08
2	1	0	0	1	24.3955	0.121306	0.121134	0.000671314	2	3.51745e-06	8.13186e-08
2	1	0	0	1	24.4955	0.126306	0.126118	0.00064967	2	3.58389e-06	8.19352e-08
2	1	0	0	1	24.5955	0.131307	0.13116	0.000630128	2	3.64823e-06	8.26478e-08
2	1	0	0	1	24.6955	0.136307	0.136144	0.000610011	2	3.71057e-06	8.30492e-08
2	1	0	0	1	24.7955	0.141307	0.141066	0.00059237	2	3.77106e-06	8.35632e-08
2	1	0	0	1	24.8955	0.146307	0.146075	0.000577521	2	3.82983e-06	8.43615e-08
2	1	0	0	1	24.9955	0.151308	0.151104	0.00056179	2	3.88702e-06	8.48889e-08
2	1	0	0	1	25.0955	0.156308	0.156128	0.00054664	2	3.94283e-06	8.53459e-08
2	1	0	0	1	25.1955	0.161308	0.161147	0.000535197	2	3.99729e-06	8.62453e-08
2	1	0	0	1	25.2955	0.166308	0.166157	0.000523848	2	4.05056e-06	8.7041e-08
2	1	0	0	1	25.3955	0.171308	0.17117	0.000511951	2	4.10273e-06	8.76308e-08
2	1	0	0	1	25.4955	0.176309	0.17613	0.000502663	2	4.15391e-06	8.85339e-08
2	1	0	0	1	25.5955	0.181309	0.181136	0.000494692	2	4.20419e-06	8.96062e-08
2	1	0	0	1	25.6955	0.186309	0.186136	0.000487283	2	4.25362e-06	9.0701e-08
2	1	0	0	1	25.7955	0.191309	0.191171	0.000480235	2	4.30231e-06	9.18069e-08
2	1	0	0	1	25.8955	0.19631	0.196133	0.000473331	2	4.35032e-06	9.28358e-08
2	1	0	0	1	25.9955	0.20131	0.201142	0.00046804	2	4.39771e-06	9.41426e-08
2	1	0	0	1	26.0955	0.20631	0.20615	0.000463504	2	4.44458e-06	9.55515e-08
2	1	0	0	1	26.1955	0.21131	0.211084	0.000456772	2	4.49092e-06	9.64174e-08
2	1	0	0	1	26.2955	0.21631	0.216116	0.000453909	2	4.53684e-06	9.80972e-08
2	1	0	0	1	26.3955	0.221311	0.221166	0.00045009	2	4.58236e-06	9.95445e-08
2	1	0	0	1	26.4955	0.226311	0.226165	0.000446508	2	4.62754e-06	1.00985e-07
2	1	0	0	1	26.5955	0.231311	0.231108	0.000445946	2	4.67243e-06	1.03062e-07
2	1	0	0	1	26.6955	0.236311	0.236119	0.000441675	2	4.71706e-06	1.04288e-07
2	1	0	0	1	26.7955	0.241312	0.241109	0.000438985	2	4.76148e-06	1.05843e-07
2	1	0	0	1	26.8955	0.246312	0.246084	0.000436694	2	4.80575e-06	1.07463e-07
2	1	0	0	1	26.9955	0.251312	0.251117	0.00043687	2	4.84989e-06	1.09706e-07
2	1	0	0	1	27.0955	0.256312	0.256175	0.000436832	2	4.89399e-06	1.11905e-07
2	1	0	0	1	27.1955	0.261313	0.261145	0.000436325	2	4.93804e-06	1.13944e-07
2	1	0	0	1	27.2955	0.266313	0.26617	0.000438093	2	4.98213e-06	1.16607e-07
2	1	0	0	1	27.3955	0.271313	0.271133	0.000438586	2	5.02631e-06	1.18915e-07
2	1	0	0	1	27.4955	0.276313	0.276202	0.000439882	2	5.07062e-06	1.21496e-07
2	1	0	0	1	27.5955	0.281313	0.281137	0.000441815	2	5.11512e-06	1.2421e-07
2	1	0	0	1	27.6955	0.286314	0.28616	0.000444999	2	5.15986e-06	1.27341e-07
2	1	0	0	1	27.7955	0.291314	0.291138	0.00044885	2	5.20489e-06	1.30677e-07
2	1	0	0	1	27.8955	0.296314	0.296134	0.000451689	2	5.25028e-06	1.3376e-07
2	0	0	0	1	27.9851	0.299214	0.299001	0.000351103	2	5.28962e-06	1.0498e-07
2	0	0	0	1	28.0851	0.294214	0.29398	0.0003107	2	5.32216e-06	9.13398e-08
2	0	0	0	1	28.1851	0.289214	0.288977	0.000286139	2	5.3517e-06	8.26874e-08
2	0	0	0	1	28.2851	0.284214	0.284034	0.000270596	2	5.37925e-06	7.68586e-08
2	0	0	0	1	28.3851	0.279213	0.279061	0.000254444	2	5.40523e-06	7.10055e-08
2	0	0	0	1	28.4851	0.274213	0.27402	0.000242994	2	5.42993e-06	6.65854e-08
2	0	0	0	1	28.5851	0.269213	0.268994	0.000232481	2	5.45355e-06	6.2536e-08
2	0	0	0	1	28.6851	0.264213	0.264064	0.000225783	2	5.47624e-06	5.9621e-08
2	0	0	0	1	28.7851	0.259212	0.259015	0.00021753	2	5.49811e-06	5.63436e-08
2	0	0	0	1	28.8851	0.254212	0.254017	0.000209099	2	5.51923e-06	5.31147e-08
2	0	0	0	1	28.9851	0.249212	0.248973	0.000204888	2	5.53971e-06	5.10115e-08
2	0	0	0	1	29.0851	0.244212	0.243988	0.000198905	2	5.55961e-06	4.85305e-08
2	0	0	0	1	29.1851	0.239212	0.238958	0.000193756	2	5.57893e-06	4.62995e-08
2	0	0	0	1	29.2851	0.234211	0.234011	0.000186351	2	5.59775e-06	4.36083e-08
2	0	0	0	1	29.3851	0.229211	0.228935	0.000183423	2	5.61609e-06	4.19919e-08
2	0	0	0	1	29.4851	0.224211	0.223996	0.000179026	2	5.63399e-06	4.01012e-08
2	0	0	0	1	29.5851	0.219211	0.219029	0.000175135	2	5.65146e-06	3.83595e-08
2	0	0	0	1	29.6851	0.21421	0.213943	0.000170503	2	5.6685e-06	3.6478e-08
2	0	0	0	1	29.7851	0.20921	0.209038	0.000167297	2	5.68516e-06	3.49715e-08
2	0	0	0	1	29.8851	0.20421	0.203994	0.000164105	2	5.70145e-06	3.34765e-08
2	0	0	0	1	29.9851	0.19921	0.198955	0.000159122	2	5.71734e-06	3.16582e-08
2	0	0	0	1	30.0851	0.19421	0.194045	0.000155612	2	5.73288e-06	3.01958e-08
2	0	0	0	1	30.1851	0.189209	0.188976	0.000151968	2	5.74806e-06	2.87184e-08
2	0	0	0	1	30.2851	0.184209	0.183973	0.000148852	2	5.76289e-06	2.73849e-08
2	0	0	0	1	30.3851	0.179209	0.178975	0.000143668	2	5.77735e-06	2.5713e-08
2	0	0	0	1	30.4851	0.174209	0.174055	0.000140798	2	5.79146e-06	2.45065e-08
2	0	0	0	1	30.5851	0.169208	0.169018	0.000136982	2	5.80519e-06	2.31525e-08
2	0	0	0	1	30.6851	0.164208	0.164028	0.000134015	2	5.81855e-06	2.19822e-08
2	0	0	0	1	30.7851	0.159208	0.158977	0.000130176	2	5.83153e-06	2.0695e-08
2	0	0	0	1	30.8851	0.154208	0.153991	0.000125831	2	5.84411e-06	1.93769e-08
2	0	0	0	1	30.9851	0.149207	0.148979	0.000121899	2	5.85623e-06	1.81604e-08
2	0	0	0	1	31.0851	0.144207	0.14396	0.000116427	2	5.86793e-06	1.67608e-08
2	0	0	0	1	31.1851	0.139207	0.13896	0.000111004	2	5.87915e-06	1.54251e-08
2	0	0	0	1	31.2851	0.134207	0.133996	0.000105708	2	5.88983e-06	1.41645e-08
2	0	0	0	1	31.3851	0.129207	0.129003	0.000100729	2	5.89994e-06	1.29943e-08
2	0	0	0	1	31.4851	0.124206	0.123974	9.26493e-05	2	5.90935e-06	1.14861e-08
2	0	0	0	1	31.5851	0.119206	0.118986	8.39374e-05	2	5.91801e-06	9.98736e-09
2	0	0	1	1	31.6853	0.114206	0.113922	7.39502e-05	2	5.9258e-06	8.42452e-09
2	0	0	1	1	31.7853	0.109206	0.108909	6.18928e-05	2	5.9325e-06	6.7407e-09
2	0	0	1	1	31.8853	0.104205	0.103931	5.01445e-05	2	5.93795e-06	5.21157e-09
2	0	0	1	1	31.9853	0.0992051	0.0989536	3.25777e-05	2	5.94187e-06	3.22368e-09
2	0	0	1	1	32.0853	0.0942049	0.094006	1.25203e-05	2	5.94395e-06	1.17698e-09
2	0	0	1	1	32.1853	0.0892047	0.0890086	-1.14232e-05	2	5.94375e-06	-1.01676e-09
2	0	0	1	1	32.2853	0.0842045	0.0839825	-4.32095e-05	2	5.94077e-06	-3.62884e-09
2	0	0	1	1	32.3853	0.0792042	0.0789724	-8.03568e-05	2	5.93442e-06	-6.34597e-09
2	0	0	1	1	32.4853	0.074204	0.0739781	-0.000124017	2	5.92401e-06	-9.17453e-09
2	0	0	1	1	32.5853	0.0692038	0.0689786	-0.000175993	2	5.90879e-06	-1.21398e-08
2	0	0	1	1	32.6853	0.0642035	0.0640278	-0.000235807	2	5.888e-06	-1.50982e-08
2	0	0	1	1	32.7853	0.0592033	0.0590124	-0.000302142	2	5.86091e-06	-1.78301e-08
2	0	0	1	1	32.8853	0.0542031	0.054033	-0.000372655	2	5.82699e-06	-2.01356e-08
2	0	0	1	1	32.9853	0.0492029	0.0490186	-0.000443871	2	5.78592e-06	-2.17579e-08
2	0	0	1	1	33.0853	0.0442026	0.0440042	-0.000511193	2	5.73785e-06	-2.24946e-08
2	0	0	1	1	33.1853	0.0392024	0.0389686	-0.000573141	2	5.68339e-06	-2.23345e-08
2	0	0	1	1	33.2853	0.0342022	0.0340454	-0.000617661	2	5.62352e-06	-2.10285e-08
2	0	0	1	1	33.3853	0.029202	0.0289833	-0.000651184	2	5.55967e-06	-1.88734e-08
2	0	0	1	1	33.4853	0.0242017	0.0239668	-0.000666949	2	5.49339e-06	-1.59846e-08
2	0	0	1	1	33.5853	0.0192015	0.0189492	-0.000669468	2	5.42622e-06	-1.26859e-08
2	0	0	1	1	33.6853	0.0142013	0.0140239	-0.000658502	2	5.35956e-06	-9.23475e-09
2	0	0	1	1	33.7853	0.00920105	0.00897662	-0.00063839	2	5.29443e-06	-5.73058e-09
2	0	0	1	1	33.8853	0.00420083	0.00397389	-0.000613286	2	5.23158e-06	-2.43713e-09
2	0	0	1	1	33.9853	-0.000799402	-0.00104792	-0.000590653	2	5.1714e-06	6.18954e-10
2	0	0	1	1	34.0853	-0.00579963	-0.00596053	-0.000557452	2	5.114e-06	3.32271e-09
2	0	0	1	1	34.1853	-0.0107999	-0.0110513	-0.000527933	2	5.05946e-06	5.83432e-09
2	0	0	1	1	34.2853	-0.0158001	-0.0160381	-0.00050311	2	5.00759e-06	8.06892e-09
2	0	0	1	1	34.3853	-0.0208003	-0.0210694	-0.000478534	2	4.95824e-06	1.00824e-08
2	0	0	1	1	34.4853	-0.0258006	-0.0260351	-0.000457122	2	4.91115e-06	1.19012e-08
2	0	0	1	1	34.5853	-0.0308008	-0.0310717	-0.000438066	2	4.86611e-06	1.36115e-08
2	0	0	1	1	34.6853	-0.035801	-0.0360034	-0.000420748	2	4.82292e-06	1.51484e-08
2	0	0	1	1	34.7853	-0.0408012	-0.0410846	-0.000405059	2	4.7814e-06	1.66417e-08
2	0	0	1	1	34.8853	-0.0458015	-0.0460417	-0.00039208	2	4.74135e-06	1.8052e-08
2	0	0	1	1	34.9853	-0.0508017	-0.0509946	-0.000377821	2	4.70265e-06	1.92669e-08
2	0	0	1	1	35.0853	-0.0558019	-0.0561034	-0.000366976	2	4.66513e-06	2.05886e-08
2	0	0	1	1	35.1853	-0.0608022	-0.0610976	-0.00035687	2	4.62871e-06	2.18039e-08
2	0	0	1	1	35.2853	-0.0658024	-0.0660399	-0.000346763	2	4.59328e-06	2.29002e-08
2	0	0	1	1	35.3853	-0.0708026	-0.0710904	-0.000337638	2	4.55877e-06	2.40028e-08
2	0	0	1	1	35.4853	-0.0758028	-0.0760327	-0.000330664	2	4.52509e-06	2.51413e-08
2	0	0	1	1	35.5853	-0.0808031	-0.0810481	-0.000322834	2	4.49215e-06	2.61651e-08
2	0	0	1	1	35.6853	-0.0858033	-0.0860689	-0.000316898	2	4.45993e-06	2.72751e-08
2	0	0	1	1	35.7853	-0.0908035	-0.0910578	-0.00030952	2	4.42836e-06	2.81842e-08
2	0	0	1	1	35.8853	-0.0958038	-0.0960616	-0.000304083	2	4.3974e-06	2.92107e-08
2	0	0	0	1	35.9855	-0.100804	-0.101001	-0.000300144	2	4.36695e-06	3.03148e-08
2	0	0	0	1	36.0855	-0.105804	-0.106047	-0.000294965	2	4.33706e-06	3.12801e-08
2	0	0	0	1	36.1855	-0.110804	-0.111039	-0.000289164	2	4.30766e-06	3.21085e-08
2	0	0	0	1	36.2855	-0.115805	-0.116022	-0.000285282	2	4.27873e-06	3.30989e-08
2	0	0	0	1	36.3855	-0.120805	-0.121081	-0.000282383	2	4.2502e-06	3.41911e-08
2	0	0	0	1	36.4855	-0.125805	-0.126045	-0.000276819	2	4.22208e-06	3.48917e-08
2	0	0	0	1	36.5855	-0.130805	-0.131072	-0.000273662	2	4.19432e-06	3.58695e-08
2	0	0	0	1	36.6855	-0.135806	-0.136064	-0.000269838	2	4.16692e-06	3.67154e-08
2	0	0	0	1	36.7855	-0.140806	-0.141031	-0.000267491	2	4.13984e-06	3.77245e-08
2	0	0	0	1	36.8855	-0.145806	-0.146044	-0.000264421	2	4.11305e-06	3.86171e-08
2	0	0	0	1	36.9855	-0.150806	-0.151038	-0.000261241	2	4.08652e-06	3.94572e-08
2	0	0	0	1	37.0855	-0.155807	-0.156013	-0.000259524	2	4.06022e-06	4.04891e-08
2	0	0	0	1	37.1855	-0.160807	-0.161049	-0.000257671	2	4.03416e-06	4.14978e-08
2	0	0	0	1	37.2855	-0.165807	-0.166065	-0.000255997	2	4.0083e-06	4.2512e-08
2	0	0	0	1	37.3855	-0.170807	-0.171074	-0.000253764	2	3.98259e-06	4.34124e-08
2	0	0	0	1	37.4855	-0.175807	-0.176027	-0.000252667	2	3.95704e-06	4.44762e-08
2	0	0	0	1	37.5855	-0.180808	-0.181027	-0.000252259	2	3.93161e-06	4.56658e-08
2	0	0	0	1	37.6855	-0.185808	-0.186013	-0.000251275	2	3.90627e-06	4.67405e-08
2	0	0	0	1	37.7855	-0.190808	-0.191066	-0.000249631	2	3.881e-06	4.76958e-08
2	0	0	0	1	37.8855	-0.195808	-0.196037	-0.000250998	2	3.85577e-06	4.92048e-08
2	1	0	1	0	37.9749	-0.199709	-0.199905	-0.000150787	2	3.83383e-06	3.0143e-08
2	1	0	1	0	38.0749	-0.194708	-0.194937	-0.000112708	2	3.82146e-06	2.19711e-08
2	1	0	1	0	38.1749	-0.189708	-0.189909	-9.91972e-05	2	3.81124e-06	1.88385e-08
2	1	0	1	0	38.2749	-0.184708	-0.184897	-8.79188e-05	2	3.80226e-06	1.62559e-08
2	1	0	1	0	38.3749	-0.179708	-0.179867	-7.89278e-05	2	3.79425e-06	1.41965e-08
2	1	0	1	0	38.4749	-0.174707	-0.174869	-7.07494e-05	2	3.78704e-06	1.23719e-08
2	1	0	1	0	38.5749	-0.169707	-0.16993	-6.44734e-05	2	3.7805e-06	1.0956e-08
2	1	0	1	0	38.6749	-0.164707	-0.164934	-5.85524e-05	2	3.77457e-06	9.65727e-09
2	1	0	1	0	38.7749	-0.159707	-0.15989	-5.40216e-05	2	3.76916e-06	8.63749e-09
2	1	0	1	0	38.8749	-0.154706	-0.15491	-4.76626e-05	2	3.76424e-06	7.38342e-09
2	1	0	1	0	38.9749	-0.149706	-0.149882	-4.4612e-05	2	3.75977e-06	6.68654e-09
2	1	0	1	0	39.0749	-0.144706	-0.144905	-4.26284e-05	2	3.7557e-06	6.17705e-09
2	1	0	1	0	39.1749	-0.139706	-0.139958	-3.75429e-05	2	3.75201e-06	5.25444e-09
2	1	0	1	0	39.2749	-0.134706	-0.134908	-3.50134e-05	2	3.74866e-06	4.72358e-09
2	1	0	1	0	39.3749	-0.129705	-0.129872	-3.1281e-05	2	3.74565e-06	4.06253e-09
2	1	0	1	0	39.4749	-0.124705	-0.124909	-2.80768e-05	2	3.74295e-06	3.50703e-09
2	1	0	1	0	39.5749	-0.119705	-0.119856	-2.55208e-05	2	3.74056e-06	3.05883e-09
2	1	0	1	0	39.6749	-0.114705	-0.114919	-2.24526e-05	2	3.73846e-06	2.58023e-09
2	1	0	1	0	39.7749	-0.109704	-0.109924	-1.85082e-05	2	3.73662e-06	2.03449e-09
2	1	0	1	0	39.8749	-0.104704	-0.104941	-1.68036e-05	2	3.73503e-06	1.7634e-09
2	1	0	0	0	39.9694	-0.0999789	-0.100198	-4.79392e-06	3	3.73375e-06	4.80342e-10
2	1	0	0	0	40.0651	-0.0952037	-0.0954234	-1.3829e-05	3	3.73269e-06	1.31961e-09
2	1	0	0	0	40.1651	-0.0902035	-0.0904472	-1.16122e-05	3	3.73179e-06	1.05029e-09
2	1	0	0	0	40.2651	-0.0852033	-0.0853967	-1.10646e-05	3	3.73111e-06	9.44883e-10
2	1	0	0	0	40.3651	-0.0802031	-0.0803961	-6.14345e-06	3	3.73064e-06	4.9391e-10
2	1	0	0	0	40.4651	-0.0752028	-0.0754082	-5.179e-06	3	3.73037e-06	3.90539e-10
2	1	0	0	0	40.5651	-0.0702026	-0.0703557	-3.47973e-06	3	3.73029e-06	2.44818e-10
2	1	0	0	0	40.6651	-0.0652024	-0.0654293	-2.7396e-06	3	3.73039e-06	1.7925e-10
2	1	0	0	0	40.7651	-0.0602021	-0.060417	-2.20724e-07	3	3.7307e-06	1.33355e-11
2	1	0	0	0	40.8651	-0.0552019	-0.0554207	1.99787e-06	3	3.7312e-06	-1.10723e-10
2	1	0	0	0	40.9651	-0.0502017	-0.0503808	4.66336e-06	3	3.73192e-06	-2.34944e-10
2	1	0	0	0	41.0651	-0.0452014	-0.0453845	5.2445e-06	3	3.7328e-06	-2.38019e-10
2	1	0	0	0	41.1651	-0.0402012	-0.0404008	8.05484e-06	3	3.73391e-06	-3.25422e-10
2	1	0	0	0	41.2651	-0.035201	-0.0354288	1.00208e-05	3	3.73525e-06	-3.55026e-10
2	1	0	0	0	41.3651	-0.0302008	-0.030389	1.27358e-05	3	3.73686e-06	-3.87028e-10
2	1	0	0	0	41.4651	-0.0252005	-0.0253757	1.61926e-05	3	3.73876e-06	-4.10899e-10
2	1	0	0	0	41.5651	-0.0202003	-0.0203698	2.12675e-05	3	3.74102e-06	-4.33213e-10
2	1	0	0	0	41.6651	-0.0152001	-0.0154179	2.49257e-05	3	3.7437e-06	-3.84302e-10
2	1	0	0	0	41.7651	-0.0101998	-0.0103982	3.04987e-05	3	3.74692e-06	-3.17132e-10
2	1	0	0	0	41.8651	-0.0051996	-0.00538383	3.8368e-05	3	3.75079e-06	-2.06566e-10
2	1	0	0	0	41.9651	-0.000199374	-0.00040548	4.84558e-05	3	3.75553e-06	-1.96479e-11
2	1	0	0	0	42.0651	0.00480085	0.00465873	6.08612e-05	3	3.7613e-06	2.83536e-10
2	1	0	0	0	42.1651	0.00980108	0.00957559	7.46868e-05	3	3.7684e-06	7.1517e-10
2	1	0	0	0	42.2651	0.0148013	0.0146493	9.55798e-05	3	3.77725e-06	1.40018e-09
2	1	0	0	0	42.3651	0.0198015	0.0196192	0.000119601	3	3.78825e-06	2.34648e-09
2	1	0	0	0	42.4651	0.0248018	0.0246092	0.00015085	3	3.80198e-06	3.71231e-09
2	1	0	0	0	42.5651	0.029802	0.0296448	0.000186258	3	3.81908e-06	5.52157e-09
2	1	0	0	0	42.6651	0.0348022	0.0346242	0.000229301	3	3.84022e-06	7.93937e-09
2	1	0	0	0	42.7651	0.0398025	0.0396439	0.000281625	3	3.86619e-06	1.11647e-08
2	1	0	0	0	42.8651	0.0448027	0.0445639	0.000341222	3	3.89766e-06	1.52062e-08
2	1	0	0	0	42.9651	0.0498029	0.049538	0.000403123	3	3.93522e-06	1.99699e-08
2	1	0	0	0	43.0651	0.0548031	0.0546075	0.000469909	3	3.9794e-06	2.56606e-08
2	1	0	0	0	43.1651	0.0598034	0.059658	0.000535762	3	4.03018e-06	3.19625e-08
2	1	0	0	0	43.2651	0.0648036	0.064684	0.000598496	3	4.08739e-06	3.87131e-08
2	1	0	0	0	43.3651	0.0698038	0.0696391	0.000652021	3	4.15044e-06	4.54061e-08
2	1	0	0	0	43.4651	0.074804	0.0745919	0.000697142	3	4.21842e-06	5.20012e-08
2	1	0	0	0	43.5651	0.0798043	0.0796106	0.000728681	3	4.29024e-06	5.80107e-08
2	1	0	0	0	43.6651	0.0848045	0.0845921	0.000749342	3	4.36464e-06	6.33884e-08
2	1	0	0	0	43.7651	0.0898047	0.0897157	0.000755989	3	4.44037e-06	6.78241e-08
2	1	0	0	0	43.8651	0.094805	0.0945764	0.000753808	3	4.51634e-06	7.12924e-08
2	1	0	0	0	43.9651	0.0998052	0.0995738	0.000744423	3	4.59166e-06	7.4125e-08
2	1	0	0	0	44.0651	0.104805	0.104616	0.000726701	3	4.66565e-06	7.60243e-08
2	1	0	0	0	44.1651	0.109806	0.109674	0.00070853	3	4.73783e-06	7.7707e-08
2	1	0	0	0	44.2651	0.114806	0.114581	0.000687155	3	4.80796e-06	7.87348e-08
2	1	0	1	0	44.3653	0.119806	0.1196	0.000666292	3	4.87602e-06	7.96882e-08
2	1	0	1	0	44.4653	0.124806	0.124581	0.000643048	3	4.94176e-06	8.01116e-08
2	1	0	1	0	44.5653	0.129807	0.129635	0.000622291	3	5.00538e-06	8.06704e-08
2	1	0	1	0	44.6653	0.134807	0.134667	0.000602133	3	5.06693e-06	8.10874e-08
2	1	0	1	0	44.7653	0.139807	0.139632	0.00058511	3	5.12657e-06	8.16999e-08
2	1	0	1	0	44.8653	0.144807	0.144585	0.000567495	3	5.18445e-06	8.20511e-08
2	1	0	1	0	44.9653	0.149807	0.149633	0.000550455	3	5.24068e-06	8.23662e-08
2	1	0	1	0	45.0653	0.154808	0.154696	0.000536938	3	5.29544e-06	8.30622e-08
2	1	0	1	0	45.1653	0.159808	0.15967	0.000523514	3	5.34879e-06	8.35895e-08
2	1	0	1	0	45.2653	0.164808	0.164662	0.000511294	3	5.40088e-06	8.41908e-08
2	1	0	1	0	45.3653	0.169808	0.169579	0.000499811	3	5.45182e-06	8.47574e-08
2	1	0	1	0	45.4653	0.174809	0.17463	0.000489629	3	5.50169e-06	8.55037e-08
2	1	0	1	0	45.5653	0.179809	0.179616	0.000482286	3	5.55058e-06	8.66265e-08
2	1	0	1	0	45.6653	0.184809	0.184657	0.000472772	3	5.59858e-06	8.73008e-08
2	1	0	1	0	45.7653	0.189809	0.189618	0.000464606	3	5.64577e-06	8.80975e-08
2	1	0	1	0	45.8653	0.194809	0.194658	0.000457892	3	5.69222e-06	8.91326e-08
2	1	0	1	0	45.9653	0.19981	0.199685	0.000451307	3	5.73799e-06	9.01191e-08
2	1	0	1	0	46.0653	0.20481	0.204647	0.000446681	3	5.78314e-06	9.14119e-08
2	1	0	1	0	46.1653	0.20981	0.209678	0.000439377	3	5.82774e-06	9.21278e-08
2	1	0	1	0	46.2653	0.21481	0.214646	0.000434669	3	5.87181e-06	9.33001e-08
2	1	0	1	0	46.3653	0.219811	0.219659	0.000429128	3	5.91544e-06	9.4262e-08
2	1	0	1	0	46.4653	0.224811	0.224639	0.000425461	3	5.95864e-06	9.55751e-08
2	1	0	1	0	46.5653	0.229811	0.229593	0.000422215	3	6.00146e-06	9.69374e-08
2	1	0	1	0	46.6653	0.234811	0.234585	0.000419164	3	6.04394e-06	9.83295e-08
2	1	0	1	0	46.7653	0.239812	0.239633	0.000416156	3	6.08612e-06	9.97248e-08
2	1	0	1	0	46.8653	0.244812	0.244684	0.000414361	3	6.12807e-06	1.01387e-07
2	1	0	1	0	46.9653	0.249812	0.249683	0.000411927	3	6.16978e-06	1.02851e-07
2	1	0	1	0	47.0653	0.254812	0.254623	0.000410604	3	6.21133e-06	1.04549e-07
2	1	0	1	0	47.1653	0.259812	0.259662	0.000410362	3	6.25279e-06	1.06556e-07
2	1	0	1	0	47.2653	0.264813	0.264628	0.000409391	3	6.29416e-06	1.08336e-07
2	1	0	1	0	47.3653	0.269813	0.269671	0.000408633	3	6.33551e-06	1.10196e-07
2	1	0	1	0	47.4653	0.274813	0.274664	0.000410256	3	6.37687e-06	1.12683e-07
2	1	0	1	0	47.5653	0.279813	0.27961	0.000410837	3	6.41831e-06	1.14874e-07
2	1	0	1	0	47.6653	0.284814	0.28459	0.000413001	3	6.45988e-06	1.17536e-07
2	1	0	1	0	47.7653	0.289814	0.289664	0.000414114	3	6.50165e-06	1.19954e-07
2	1	0	1	0	47.8653	0.294814	0.294602	0.000418058	3	6.54365e-06	1.23161e-07
2	1	0	1	0	47.9643	0.299764	0.299568	0.000420466	3	6.58552e-06	1.25958e-07
2	0	0	1	0	48.0549	0.295714	0.29555	0.00029107	3	6.61377e-06	8.6026e-08
2	0	0	1	0	48.1549	0.290714	0.290518	0.000268238	3	6.64143e-06	7.79279e-08
2	0	0	1	0	48.2549	0.285714	0.285538	0.00025139	3	6.6672e-06	7.17813e-08
2	0	0	1	0	48.3549	0.280713	0.280519	0.000238116	3	6.69152e-06	6.67959e-08
2	0	0	1	0	48.4549	0.275713	0.275515	0.000227634	3	6.71467e-06	6.27166e-08
2	0	0	1	0	48.5549	0.270713	0.270455	0.000219019	3	6.73684e-06	5.92348e-08
2	0	0	1	0	48.6549	0.265713	0.265478	0.000211464	3	6.75812e-06	5.61391e-08
2	0	0	1	0	48.7549	0.260713	0.260449	0.000203003	3	6.77869e-06	5.28719e-08
2	0	0	1	0	48.8549	0.255712	0.255457	0.000197949	3	6.79859e-06	5.05675e-08
2	0	0	1	0	48.9549	0.250712	0.250495	0.000193456	3	6.81785e-06	4.84597e-08
2	0	0	1	0	49.0549	0.245712	0.245539	0.000186943	3	6.83658e-06	4.59018e-08
2	0	0	1	0	49.1549	0.240712	0.24049	0.00018098	3	6.85482e-06	4.35238e-08
2	0	0	1	0	49.2549	0.235711	0.235533	0.000178549	3	6.87259e-06	4.20541e-08
2	0	0	1	0	49.3549	0.230711	0.230521	0.000174299	3	6.88991e-06	4.01797e-08
2	0	0	1	0	49.4549	0.225711	0.225505	0.000169836	3	6.9068e-06	3.82987e-08
2	0	0	1	0	49.5549	0.220711	0.220511	0.000166273	3	6.9233e-06	3.66649e-08
2	0	0	1	0	49.6549	0.21571	0.215457	0.000161972	3	6.93942e-06	3.48979e-08
2	0	0	1	0	49.7549	0.21071	0.210516	0.00015749	3	6.95516e-06	3.31542e-08
2	0	0	1	0	49.8549	0.20571	0.205577	0.000154669	3	6.97055e-06	3.17964e-08
2	0	0	1	0	49.9549	0.20071	0.200526	0.000150877	3	6.98557e-06	3.02548e-08
2	0	0	1	0	50.0549	0.19571	0.195535	0.0001476	3	7.00027e-06	2.8861e-08
2	0	0	1	0	50.1549	0.190709	0.190435	0.000144542	3	7.0146e-06	2.75259e-08
2	0	0	1	0	50.2549	0.185709	0.185468	0.000140285	3	7.0286e-06	2.60185e-08
2	0	0	1	0	50.3549	0.180709	0.180497	0.000136111	3	7.04225e-06	2.45678e-08
2	0	0	1	0	50.4549	0.175709	0.175539	0.00013248	3	7.05556e-06	2.32554e-08
2	0	0	1	0	50.5549	0.170708	0.170487	0.000131106	3	7.06853e-06	2.23517e-08
2	0	0	1	0	50.6549	0.165708	0.1655	0.00012629	3	7.08113e-06	2.0901e-08
2	0	0	1	0	50.7549	0.160708	0.160551	0.000122519	3	7.09337e-06	1.96706e-08
2	0	0	1	0	50.8549	0.155708	0.155539	0.000118813	3	7.10523e-06	1.84801e-08
2	0	0	1	0	50.9549	0.150707	0.15045	0.000115332	3	7.11665e-06	1.73517e-08
2	0	0	1	0	51.0549	0.145707	0.145476	0.000110543	3	7.12769e-06	1.60814e-08
2	0	0	1	0	51.1549	0.140707	0.140514	0.000105959	3	7.13827e-06	1.48887e-08
2	0	0	1	0	51.2549	0.135707	0.135431	0.000100678	3	7.14833e-06	1.36349e-08
2	0	0	1	0	51.3549	0.130707	0.130494	9.53042e-05	3	7.15784e-06	1.24367e-08
2	0	0	1	0	51.4549	0.125706	0.125428	8.785e-05	3	7.16672e-06	1.10189e-08
2	0	0	1	0	51.5549	0.120706	0.120466	7.96027e-05	3	7.1749e-06	9.58939e-09
2	0	0	0	0	51.6551	0.115706	0.115483	7.07336e-05	3	7.18227e-06	8.16854e-09
2	0	0	0	0	51.7551	0.110706	0.110504	6.04108e-05	3	7.18862e-06	6.67562e-09
2	0	0	0	0	51.8551	0.105705	0.105473	4.75356e-05	3	7.19381e-06	5.01374e-09
2	0	0	0	0	51.9551	0.100705	0.100449	3.15868e-05	3	7.19761e-06	3.17287e-09
2	0	0	0	0	52.0551	0.095705	0.095505	1.41948e-05	3	7.19971e-06	1.35568e-09
2	0	0	0	0	52.1551	0.0907048	0.0904832	-8.71709e-06	3	7.19973e-06	-7.8875e-10
2	0	0	0	0	52.2551	0.0857045	0.0855229	-3.71048e-05	3	7.19719e-06	-3.17331e-09
2	0	0	0	0	52.3551	0.0807043	0.0804937	-7.11203e-05	3	7.19159e-06	-5.72474e-09
2	0	0	0	0	52.4551	0.0757041	0.0755227	-0.000111852	3	7.18225e-06	-8.44734e-09
2	0	0	0	0	52.5551	0.0707039	0.0705497	-0.000159347	3	7.16846e-06	-1.12418e-08
2	0	0	0	0	52.6551	0.0657036	0.0655141	-0.000215311	3	7.14948e-06	-1.41059e-08
2	0	0	0	0	52.7551	0.0607034	0.0605209	-0.000277771	3	7.12456e-06	-1.6811e-08
2	0	0	0	0	52.8551	0.0557032	0.0555193	-0.000345514	3	7.09311e-06	-1.91827e-08
2	0	0	0	0	52.9551	0.0507029	0.0505112	-0.000416613	3	7.05474e-06	-2.10436e-08
2	0	0	0	0	53.0551	0.0457027	0.0454481	-0.000486192	3	7.00928e-06	-2.20965e-08
2	0	0	0	0	53.1551	0.0407025	0.0404835	-0.000548109	3	6.95724e-06	-2.21894e-08
2	0	0	0	0	53.2551	0.0357023	0.0354575	-0.000601131	3	6.89938e-06	-2.13146e-08
2	0	0	0	0	53.3551	0.030702	0.0305088	-0.000639826	3	6.83693e-06	-1.95203e-08
2	0	0	0	0	53.4551	0.0257018	0.0255517	-0.000662745	3	6.77137e-06	-1.69342e-08
2	0	0	0	0	53.5551	0.0207016	0.0204981	-0.000670589	3	6.70422e-06	-1.37458e-08
2	0	0	0	0	53.6551	0.0157013	0.0154423	-0.000666118	3	6.63696e-06	-1.02864e-08
2	0	0	0	0	53.7551	0.0107011	0.0104523	-0.00065157	3	6.57077e-06	-6.81042e-09
2	0	0	0	0	53.8551	0.00570089	0.00549305	-0.000628074	3	6.50651e-06	-3.45004e-09
2	0	0	0	0	53.9551	0.000700667	0.000498806	-0.000603427	3	6.44473e-06	-3.00993e-10
2	0	0	0	0	54.0551	-0.00429956	-0.004523	-0.000574068	3	6.38562e-06	2.59651e-09
2	0	0	0	0	54.1551	-0.00929979	-0.00956284	-0.00054635	3	6.32934e-06	5.22465e-09
2	0	0	0	0	54.2551	-0.0143	-0.0145369	-0.000520177	3	6.27578e-06	7.56179e-09
2	0	0	0	0	54.3551	-0.0193003	-0.0194951	-0.000495741	3	6.22477e-06	9.66454e-09
2	0	0	0	0	54.4551	-0.0243005	-0.0245011	-0.00047274	3	6.17611e-06	1.15826e-08
2	0	0	0	0	54.5551	-0.0293007	-0.0295313	-0.000452204	3	6.12955e-06	1.33542e-08
2	0	0	0	0	54.6551	-0.0343009	-0.0345245	-0.000435303	3	6.08493e-06	1.50286e-08
2	0	0	0	0	54.7551	-0.0393012	-0.0395591	-0.000419395	3	6.04203e-06	1.65909e-08
2	0	0	0	0	54.8551	-0.0443014	-0.044619	-0.000405928	3	6.00067e-06	1.81121e-08
2	0	0	0	0	54.9551	-0.0493016	-0.0496027	-0.000390144	3	5.9607e-06	1.93522e-08
2	0	0	0	0	55.0551	-0.0543019	-0.0545577	-0.000378436	3	5.92194e-06	2.06466e-08
2	0	0	0	0	55.1551	-0.0593021	-0.0595551	-0.000368067	3	5.88435e-06	2.19203e-08
2	0	0	0	0	55.2551	-0.0643023	-0.0645515	-0.000358638	3	5.8478e-06	2.31506e-08
2	0	0	0	0	55.3551	-0.0693026	-0.069568	-0.000348656	3	5.81216e-06	2.42553e-08
2	0	0	0	0	55.4551	-0.0743028	-0.0745633	-0.000340414	3	5.77739e-06	2.53824e-08
2	0	0	0	0	55.5551	-0.079303	-0.0794844	-0.000334509	3	5.74339e-06	2.65883e-08
2	0	0	0	0	55.6551	-0.0843032	-0.08452	-0.000327043	3	5.71015e-06	2.76417e-08
2	0	0	0	0	55.7551	-0.0893035	-0.0894846	-0.000320316	3	5.67758e-06	2.86634e-08
2	0	0	0	0	55.8551	-0.0943037	-0.0945552	-0.000315144	3	5.64562e-06	2.97985e-08
2	0	0	1	0	55.9553	-0.0993039	-0.0996035	-0.000308327	3	5.6142e-06	3.07105e-08
2	0	0	1	0	56.0553	-0.104304	-0.104561	-0.00030338	3	5.5834e-06	3.17216e-08
2	0	0	1	0	56.1553	-0.109304	-0.109537	-0.000297685	3	5.55309e-06	3.26075e-08
2	0	0	1	0	56.2553	-0.114305	-0.114597	-0.000294794	3	5.52327e-06	3.37824e-08
2	0	0	1	0	56.3553	-0.119305	-0.119526	-0.000288687	3	5.49387e-06	3.45058e-08
2	0	0	1	0	56.4553	-0.124305	-0.124569	-0.000284524	3	5.46491e-06	3.5443e-08
2	0	0	1	0	56.5553	-0.129305	-0.129548	-0.000281855	3	5.43633e-06	3.65137e-08
2	0	0	1	0	56.6553	-0.134306	-0.134521	-0.000277458	3	5.40812e-06	3.73239e-08
2	0	0	1	0	56.7553	-0.139306	-0.13952	-0.000275496	3	5.38026e-06	3.84373e-08
2	0	0	1	0	56.8553	-0.144306	-0.144525	-0.000272331	3	5.35269e-06	3.93586e-08
2	0	0	1	0	56.9553	-0.149306	-0.149532	-0.000269434	3	5.32543e-06	4.0289e-08
2	0	0	1	0	57.0553	-0.154306	-0.154521	-0.000268973	3	5.29842e-06	4.1562e-08
2	0	0	1	0	57.1553	-0.159307	-0.159545	-0.000265553	3	5.27164e-06	4.23676e-08
2	0	0	1	0	57.2553	-0.164307	-0.164538	-0.000261314	3	5.24509e-06	4.29961e-08
2	0	0	1	0	57.3553	-0.169307	-0.169555	-0.000260254	3	5.21873e-06	4.41272e-08
2	0	0	1	0	57.4553	-0.174307	-0.174568	-0.000258312	3	5.19255e-06	4.50931e-08
2	0	0	1	0	57.5553	-0.179308	-0.17957	-0.000257645	3	5.16651e-06	4.62652e-08
2	0	0	1	0	57.6553	-0.184308	-0.184534	-0.000257203	3	5.14057e-06	4.74628e-08
2	0	0	1	0	57.7553	-0.189308	-0.189546	-0.000254485	3	5.11471e-06	4.82364e-08
2	0	0	1	0	57.8553	-0.194308	-0.194554	-0.000256205	3	5.08891e-06	4.98456e-08
2	0	0	1	0	57.9553	-0.199309	-0.199553	-0.000255834	3	5.06315e-06	5.10525e-08
2	1	0	0	1	58.0447	-0.196208	-0.196398	-0.000123473	3	5.0495e-06	2.42498e-08
2	1	0	0	1	58.1447	-0.191208	-0.191401	-0.000104979	3	5.03836e-06	2.0093e-08
2	1	0	0	1	58.2447	-0.186208	-0.186396	-9.48483e-05	3	5.02862e-06	1.76793e-08
2	1	0	0	1	58.3447	-0.181208	-0.181404	-8.47498e-05	3	5.0199e-06	1.53739e-08
2	1	0	0	1	58.4447	-0.176207	-0.176404	-7.68894e-05	3	5.01201e-06	1.35636e-08
2	1	0	0	1	58.5447	-0.171207	-0.171411	-7.00128e-05	3	5.00484e-06	1.2001e-08
2	1	0	0	1	58.6447	-0.166207	-0.166391	-6.57487e-05	3	4.99828e-06	1.094e-08
2	1	0	0	1	58.7447	-0.161207	-0.16141	-5.99337e-05	3	4.99225e-06	9.67389e-09
2	1	0	0	1	58.8447	-0.156207	-0.156465	-5.44632e-05	3	4.98672e-06	8.52161e-09
2	1	0	0	1	58.9447	-0.151206	-0.151357	-5.05506e-05	3	4.98168e-06	7.65118e-09
2	1	0	0	1	59.0447	-0.146206	-0.14638	-4.76184e-05	3	4.97703e-06	6.97041e-09
2	1	0	0	1	59.1447	-0.141206	-0.141367	-4.44831e-05	3	4.97276e-06	6.28844e-09
2	1	0	0	1	59.2447	-0.136206	-0.136451	-3.97968e-05	3	4.96886e-06	5.43033e-09
2	1	0	0	1	59.3447	-0.131205	-0.131405	-3.57694e-05	3	4.9653e-06	4.70029e-09
2	1	0	0	1	59.4447	-0.126205	-0.126381	-3.26783e-05	3	4.96208e-06	4.12992e-09
2	1	0	0	1	59.5447	-0.121205	-0.121434	-2.99527e-05	3	4.95915e-06	3.63726e-09
2	1	0	0	1	59.6447	-0.116205	-0.1164	-2.54802e-05	3	4.95651e-06	2.9659e-09
2	1	0	0	1	59.7447	-0.111204	-0.111375	-2.44027e-05	3	4.95416e-06	2.71785e-09
2	1	0	0	1	59.8447	-0.106204	-0.106371	-2.15712e-05	3	4.95207e-06	2.29455e-09
2	1	0	0	1	59.9447	-0.101204	-0.101434	-2.00944e-05	3	4.95023e-06	2.03827e-09
2	1	0	1	1	60.0449	-0.0962038	-0.0964008	-1.88438e-05	3	4.94862e-06	1.81656e-09
2	1	0	1	1	60.1449	-0.0912036	-0.0914204	-1.48677e-05	3	4.94725e-06	1.35921e-09
2	1	0	1	1	60.2449	-0.0862033	-0.0864208	-1.28293e-05	3	4.94612e-06	1.10872e-09
2	1	0	1	1	60.3449	-0.0812031	-0.0814181	-1.01002e-05	3	4.9452e-06	8.22337e-10
2	1	0	1	1	60.4449	-0.0762029	-0.0764514	-7.16089e-06	3	4.94448e-06	5.47461e-10
2	1	0	1	1	60.5449	-0.0712026	-0.071454	-6.74226e-06	3	4.94395e-06	4.81761e-10
2	1	0	1	1	60.638	-0.0665274	-0.0668615	-1.61024e-05	3	4.94362e-06	1.07663e-09