File: AutoAnalysis Examples/EC/C000A-10ppb-B_C01.mpt
EC-Lab ASCII FILE
Nb header lines : 59

Cyclic Voltammetry

Run on channel : 1 (SN 22398)
User :
CE vs. WE compliance from -10 V to 10 V
Electrode connection : standard
Ewe ctrl range : min = -1.00 V, max = 1.00 V
Safety Limits :
	Ewe min = -2.00 V
	Ewe max = 2.00 V
	|I| = 50.000 mA
	for t > 10 ms
Acquisition started on : 11/21/2018 11:42:51
Technique started on : 11/21/2018 11:42:51
Saved on :
	File : C000A-10ppb-B_C01.mpr
	Directory : \\ECCOMPUTER\Users\Lab User\Google Drive\Electrochemical Data\EC-Lab\Data\FREDsense\Tim\2018.11.21 - EC comparison to High Throughput\
	Host : 172.16.1.30
Device : SP-50 (SN 0301030103010301)
Address : USB
EC-Lab for windows v11.02 (software)
Internet server v11.02 (firmware)
Command interpretor v11.02 (firmware)
Electrode material : Au/Pd
Initial state :
Electrolyte : NaCl (0.2M)
Comments : Fe(CN)63-/Fe(CN)64- 5.10-3 M
Reference electrode : SCE Saturated Calomel Electrode (0.241 V)
Electrode surface area : 0.001 cm²
Characteristic mass : 0.001 g
Equivalent Weight : 0.000 g/eq.
Density : 0.000 g/cm3
Cycle Definition : Charge/Discharge alternance
Ei (V)              -0.100
vs.                 Ref
dE/dt               50.000
dE/dt unit          mV/s
E1 (V)              0.300
vs.                 Ref
Step percent        50
N                   10
E range min (V)     -1.000
E range max (V)     1.000
I Range             Auto
I Range min         Unset
I Range max         Unset
I Range init        Unset
Bandwidth           5
E2 (V)              -0.200
vs.                 Ref
nc cycles           2
Reverse Scan        1
Ef (V)              0.000
vs.                 Eoc

mode	ox/red	error	control changes	counter inc.	time/s	control/V	Ewe/V	<I>/mA	cycle number	(Q-Qo)/C	P/W
2	1	0	1	0	0.000000000000000E+000	-0.0984851	-0.0986249	-4.3168e-05	1	0.0000000E+000	4.25744e-09
2	1	0	0	0	0.111	-0.0929349	-0.093179	1.20546e-05	1	1.50048e-09	-1.12323e-09
2	1	0	1	0	0.2265	-0.0871597	-0.0873918	4.78023e-05	1	5.56208e-09	-4.17753e-09
2	1	0	1	0	0.3265	-0.0821595	-0.0823329	5.28171e-05	1	1.10372e-08	-4.34858e-09
2	1	0	1	0	0.4265	-0.0771593	-0.0773619	5.69734e-05	1	1.69478e-08	-4.40757e-09
2	1	0	1	0	0.5265	-0.0721591	-0.0723444	6.01176e-05	1	2.31827e-08	-4.34917e-09
2	1	0	1	0	0.6265	-0.0671589	-0.0673883	6.21083e-05	1	2.96784e-08	-4.18537e-09
2	1	0	1	0	0.7265	-0.0621587	-0.0623548	6.42457e-05	1	3.64395e-08	-4.00603e-09
2	1	0	1	0	0.8265	-0.0571585	-0.057351	6.65437e-05	1	4.34203e-08	-3.81635e-09
2	1	0	1	0	0.9265	-0.0521583	-0.0523472	7.27102e-05	1	5.06474e-08	-3.80618e-09
2	1	0	1	0	1.0265	-0.0471581	-0.0473625	7.31589e-05	1	5.80961e-08	-3.46499e-09
2	1	0	1	0	1.1265	-0.0421579	-0.0423566	7.40509e-05	1	6.57682e-08	-3.13655e-09
2	1	0	1	0	1.2265	-0.0371577	-0.037338	7.69496e-05	1	7.37082e-08	-2.87314e-09
2	1	0	1	0	1.3265	-0.0321575	-0.0323194	7.89703e-05	1	8.19082e-08	-2.55227e-09
2	1	0	1	0	1.4265	-0.0271573	-0.0273431	8.36319e-05	1	9.04153e-08	-2.28676e-09
2	1	0	1	0	1.5265	-0.022157	-0.0223712	8.75533e-05	1	9.9278e-08	-1.95867e-09
2	1	0	1	0	1.6265	-0.0171568	-0.0173642	9.24285e-05	1	1.0857e-07	-1.60495e-09
2	1	0	1	0	1.7265	-0.0121566	-0.0123583	9.70582e-05	1	1.18368e-07	-1.19947e-09
2	1	0	1	0	1.8265	-0.00715643	-0.00737675	0.000104769	1	1.28792e-07	-7.72852e-10
2	1	0	1	0	1.9265	-0.00215623	-0.00234434	0.00011203	1	1.40015e-07	-2.62637e-10
2	1	0	1	0	2.0265	0.00284397	0.00268489	0.000125508	1	1.5236e-07	3.36974e-10
2	1	0	1	0	2.1265	0.00784417	0.00765263	0.000140958	1	1.66019e-07	1.0787e-09
2	1	0	1	0	2.2265	0.0128444	0.0126893	0.000161307	1	1.81455e-07	2.04687e-09
2	1	0	1	0	2.3265	0.0178446	0.0176432	0.000188192	1	1.99203e-07	3.32032e-09
2	1	0	1	0	2.4265	0.0228448	0.022664	0.000220946	1	2.19933e-07	5.00752e-09
2	1	0	1	0	2.5265	0.027845	0.0276741	0.000264069	1	2.44523e-07	7.30789e-09
2	1	0	1	0	2.6265	0.0328452	0.0326928	0.000315939	1	2.73842e-07	1.03289e-08
2	1	0	1	0	2.7265	0.0378454	0.0376944	0.000379611	1	3.08931e-07	1.43092e-08
2	1	0	1	0	2.8265	0.0428456	0.0427173	0.000449588	1	3.50735e-07	1.92052e-08
2	1	0	1	0	2.9265	0.0478458	0.0477084	0.000528873	1	4.00051e-07	2.52317e-08
2	1	0	1	0	3.0265	0.052846	0.052744	0.00061035	1	4.57415e-07	3.21923e-08
2	1	0	1	0	3.1265	0.0578462	0.0576852	0.000686556	1	5.2269e-07	3.96041e-08
2	1	0	1	0	3.2265	0.0628464	0.0626158	0.000755957	1	5.95319e-07	4.73349e-08
2	1	0	1	0	3.3265	0.0678466	0.0676854	0.000810785	1	6.74215e-07	5.48782e-08
2	1	0	1	0	3.4265	0.0728468	0.0726828	0.000849901	1	7.57844e-07	6.17732e-08
2	1	0	1	0	3.5265	0.077847	0.0776622	0.000871958	1	8.44524e-07	6.77182e-08
2	1	0	1	0	3.6265	0.0828472	0.0826352	0.000879056	1	9.32598e-07	7.2641e-08
2	1	0	1	0	3.7265	0.0878474	0.0877281	0.000870987	1	1.02067e-06	7.641e-08
2	1	0	1	0	3.8265	0.0928476	0.0926746	0.000858615	1	1.10766e-06	7.95718e-08
2	1	0	1	0	3.9265	0.0978478	0.0977049	0.00083839	1	1.19282e-06	8.19148e-08
2	1	0	1	0	4.0265	0.102848	0.102722	0.000814273	1	1.27571e-06	8.36441e-08
2	1	0	1	0	4.1265	0.107848	0.10763	0.00078847	1	1.35616e-06	8.48628e-08
2	1	0	1	0	4.2265	0.112848	0.112658	0.000765809	1	1.43415e-06	8.62744e-08
2	1	0	1	0	4.3265	0.117849	0.117699	0.000740885	1	1.50977e-06	8.72013e-08
2	1	0	1	0	4.4265	0.122849	0.122684	0.000720329	1	1.58318e-06	8.83725e-08
2	1	0	1	0	4.5265	0.127849	0.12768	0.000700795	1	1.65454e-06	8.94774e-08
2	1	0	1	0	4.6265	0.132849	0.132695	0.00068398	1	1.72405e-06	9.0761e-08
2	1	0	1	0	4.7265	0.137849	0.137658	0.000667544	1	1.7919e-06	9.18926e-08
2	1	0	1	0	4.8265	0.14285	0.142662	0.000653556	1	1.8583e-06	9.32373e-08
2	1	0	0	0	4.9267	0.14785	0.147638	0.000641295	1	1.92345e-06	9.46795e-08
2	1	0	0	0	5.0267	0.15285	0.152706	0.000633105	1	1.98732e-06	9.6679e-08
2	1	0	0	0	5.1267	0.15785	0.15765	0.000620517	1	2.05016e-06	9.78243e-08
2	1	0	0	0	5.2267	0.16285	0.162683	0.000608933	1	2.11204e-06	9.90631e-08
2	1	0	0	0	5.3267	0.167851	0.167656	0.000603519	1	2.17312e-06	1.01184e-07
2	1	0	0	0	5.4267	0.172851	0.172634	0.000596519	1	2.23344e-06	1.0298e-07
2	1	0	0	0	5.5267	0.177851	0.17767	0.000589229	1	2.29312e-06	1.04688e-07
2	1	0	0	0	5.6267	0.182851	0.182623	0.00058499	1	2.35223e-06	1.06833e-07
2	1	0	0	0	5.7267	0.187851	0.187683	0.000578239	1	2.41084e-06	1.08526e-07
2	1	0	0	0	5.8267	0.192852	0.192737	0.000577756	1	2.46902e-06	1.11355e-07
2	1	0	0	0	5.9267	0.197852	0.19768	0.000573831	1	2.52682e-06	1.13435e-07
2	1	0	0	0	6.0267	0.202852	0.202673	0.000569735	1	2.5843e-06	1.1547e-07
2	1	0	0	0	6.1267	0.207852	0.207703	0.000567045	1	2.64155e-06	1.17777e-07
2	1	0	0	0	6.2267	0.212852	0.212685	0.00056637	1	2.69856e-06	1.20458e-07
2	1	0	0	0	6.3267	0.217853	0.217713	0.000563643	1	2.75541e-06	1.22712e-07
2	1	0	0	0	6.4267	0.222853	0.222651	0.000561903	1	2.81212e-06	1.25108e-07
2	1	0	0	0	6.5267	0.227853	0.227705	0.000561809	1	2.86873e-06	1.27927e-07
2	1	0	0	0	6.6267	0.232853	0.232687	0.000561269	1	2.92531e-06	1.306e-07
2	1	0	0	0	6.7267	0.237853	0.237659	0.000563007	1	2.98185e-06	1.33804e-07
2	1	0	0	0	6.8267	0.242854	0.242696	0.00056088	1	3.0384e-06	1.36123e-07
2	1	0	0	0	6.9267	0.247854	0.24771	0.000563042	1	3.095e-06	1.39471e-07
2	1	0	0	0	7.0267	0.252854	0.252672	0.000562624	1	3.15166e-06	1.42159e-07
2	1	0	0	0	7.1267	0.257854	0.257767	0.000563989	1	3.20847e-06	1.45378e-07
2	1	0	0	0	7.2267	0.262854	0.262722	0.000565589	1	3.26538e-06	1.48593e-07
2	1	0	0	0	7.3267	0.267855	0.267734	0.000568334	1	3.32246e-06	1.52162e-07
2	1	0	0	0	7.4267	0.272855	0.27274	0.000571489	1	3.37973e-06	1.55868e-07
2	1	0	0	0	7.5267	0.277855	0.277744	0.000571846	1	3.4372e-06	1.58827e-07
2	1	0	0	0	7.6267	0.282855	0.282727	0.000573764	1	3.49491e-06	1.62219e-07
2	1	0	0	0	7.7267	0.287855	0.287744	0.000578099	1	3.55287e-06	1.66344e-07
2	1	0	0	0	7.8267	0.292856	0.292686	0.000580531	1	3.61112e-06	1.69913e-07
2	1	0	0	0	7.9267	0.297856	0.297691	0.000582093	1	3.66968e-06	1.73284e-07
2	0	0	1	0	8.0153	0.297706	0.297567	0.000446271	1	3.71593e-06	1.32796e-07
2	0	0	1	0	8.1153	0.292706	0.292504	0.000398063	1	3.75763e-06	1.16435e-07
2	0	0	1	0	8.2153	0.287705	0.287545	0.000366511	1	3.79552e-06	1.05388e-07
2	0	0	1	0	8.3153	0.282705	0.282525	0.000343672	1	3.83066e-06	9.70958e-08
2	0	0	1	0	8.4153	0.277705	0.277466	0.000324335	1	3.86367e-06	8.99919e-08
2	0	0	1	0	8.5153	0.272705	0.272485	0.000309609	1	3.89521e-06	8.43638e-08
2	0	0	1	0	8.6153	0.267705	0.267508	0.000298867	1	3.92563e-06	7.99494e-08
2	0	0	1	0	8.7153	0.262704	0.262503	0.000281961	1	3.95437e-06	7.40157e-08
2	0	0	1	0	8.8153	0.257704	0.257508	0.000271675	1	3.98171e-06	6.99586e-08
2	0	0	1	0	8.9153	0.252704	0.252446	0.000262138	1	4.00809e-06	6.61758e-08
2	0	0	1	0	9.0153	0.247704	0.247492	0.000254149	1	4.0337e-06	6.28999e-08
2	0	0	1	0	9.1153	0.242704	0.24245	0.000245999	1	4.05843e-06	5.96425e-08
2	0	0	1	0	9.2153	0.237703	0.237456	0.000239089	1	4.08241e-06	5.6773e-08
2	0	0	1	0	9.3153	0.232703	0.232481	0.000234461	1	4.10575e-06	5.45076e-08
2	0	0	1	0	9.4153	0.227703	0.227512	0.000226221	1	4.12849e-06	5.14679e-08
2	0	0	1	0	9.5153	0.222703	0.2225	0.000221692	1	4.15069e-06	4.93263e-08
2	0	0	1	0	9.6153	0.217703	0.217517	0.000216424	1	4.17237e-06	4.70759e-08
2	0	0	1	0	9.7153	0.212702	0.212514	0.000210961	1	4.19352e-06	4.48322e-08
2	0	0	1	0	9.8153	0.207702	0.207524	0.000207716	1	4.21419e-06	4.31061e-08
2	0	0	1	0	9.9153	0.202702	0.202448	0.000202825	1	4.23439e-06	4.10615e-08
2	0	0	1	0	10.0153	0.197702	0.197519	0.000197951	1	4.25421e-06	3.90991e-08
2	0	0	1	0	10.1153	0.192702	0.19252	0.000193622	1	4.27356e-06	3.72761e-08
2	0	0	1	0	10.2153	0.187701	0.187474	0.00019055	1	4.2925e-06	3.57232e-08
2	0	0	1	0	10.3153	0.182701	0.182433	0.000185673	1	4.31102e-06	3.38729e-08
2	0	0	1	0	10.4153	0.177701	0.17749	0.00018145	1	4.32912e-06	3.22055e-08
2	0	0	1	0	10.5153	0.172701	0.172482	0.00017729	1	4.3468e-06	3.05793e-08
2	0	0	1	0	10.6153	0.167701	0.167497	0.000174054	1	4.36408e-06	2.91535e-08
2	0	0	1	0	10.7153	0.1627	0.162492	0.000168223	1	4.38097e-06	2.73349e-08
2	0	0	1	0	10.8153	0.1577	0.157515	0.000165239	1	4.39747e-06	2.60277e-08
2	0	0	1	0	10.9153	0.1527	0.152445	0.000157105	1	4.41356e-06	2.395e-08
2	0	0	1	0	11.0153	0.1477	0.147469	0.0001563	1	4.42918e-06	2.30494e-08
2	0	0	0	0	11.1155	0.1427	0.142475	0.000152703	1	4.44439e-06	2.17564e-08
2	0	0	0	0	11.2155	0.137699	0.137462	0.000145862	1	4.45904e-06	2.00504e-08
2	0	0	0	0	11.3155	0.132699	0.132524	0.0001409	1	4.47316e-06	1.86726e-08
2	0	0	0	0	11.4155	0.127699	0.127516	0.000133366	1	4.48666e-06	1.70063e-08
2	0	0	0	0	11.5155	0.122699	0.122478	0.00012616	1	4.49943e-06	1.54518e-08
2	0	0	0	0	11.6155	0.117699	0.117466	0.000117918	1	4.51138e-06	1.38513e-08
2	0	0	0	0	11.7155	0.112698	0.112481	0.000105387	1	4.52236e-06	1.1854e-08
2	0	0	0	0	11.8155	0.107698	0.107523	9.44122e-05	1	4.53216e-06	1.01515e-08
2	0	0	0	0	11.9155	0.102698	0.10244	7.87195e-05	1	4.54052e-06	8.06406e-09
2	0	0	0	0	12.0155	0.0976978	0.0974908	5.84907e-05	1	4.54711e-06	5.70231e-09
2	0	0	0	0	12.1155	0.0926976	0.0924838	3.48882e-05	1	4.55152e-06	3.22659e-09
2	0	0	0	0	12.2155	0.0876974	0.0874705	2.53132e-06	1	4.55317e-06	2.21416e-10
2	0	0	0	0	12.3155	0.0826972	0.0824857	-3.47979e-05	1	4.5514e-06	-2.87033e-09
2	0	0	0	0	12.4155	0.077697	0.0774936	-8.09751e-05	1	4.54546e-06	-6.27505e-09
2	0	0	0	0	12.5155	0.0726968	0.0724888	-0.00013674	1	4.53439e-06	-9.91213e-09
2	0	0	0	0	12.6155	0.0676966	0.0674659	-0.000203051	1	4.5173e-06	-1.3699e-08
2	0	0	0	0	12.7155	0.0626964	0.0625035	-0.000275014	1	4.49325e-06	-1.71893e-08
2	0	0	0	0	12.8155	0.0576962	0.0574827	-0.000355878	1	4.46148e-06	-2.04568e-08
2	0	0	0	0	12.9155	0.052696	0.0525383	-0.000436385	1	4.42158e-06	-2.29269e-08
2	0	0	0	0	13.0155	0.0476958	0.0474529	-0.000517667	1	4.37348e-06	-2.45648e-08
2	0	0	0	0	13.1155	0.0426956	0.0425222	-0.000584696	1	4.31798e-06	-2.48626e-08
2	0	0	0	0	13.2155	0.0376954	0.0374824	-0.000640769	1	4.25625e-06	-2.40176e-08
2	0	0	0	0	13.3155	0.0326952	0.0325072	-0.000676031	1	4.18999e-06	-2.19759e-08
2	0	0	0	0	13.4155	0.027695	0.027496	-0.000692441	1	4.12113e-06	-1.90394e-08
2	0	0	0	0	13.5155	0.0226948	0.0224742	-0.000689977	1	4.05153e-06	-1.55067e-08
2	0	0	0	0	13.6155	0.0176946	0.0175001	-0.000675853	1	3.98282e-06	-1.18275e-08
2	0	0	0	0	13.7155	0.0126944	0.0124953	-0.000651235	1	3.91611e-06	-8.13736e-09
2	0	0	0	0	13.8155	0.00769417	0.00746817	-0.000619842	1	3.85232e-06	-4.62909e-09
2	0	0	0	0	13.9155	0.00269396	0.0024612	-0.000587618	1	3.79166e-06	-1.44625e-09
2	0	0	0	0	14.0155	-0.00230624	-0.00260195	-0.00055554	1	3.73418e-06	1.44549e-09
2	0	0	0	0	14.1155	-0.00730644	-0.00755804	-0.000523948	1	3.67991e-06	3.96002e-09
2	0	0	0	0	14.2155	-0.0123066	-0.0125597	-0.000497539	1	3.62853e-06	6.24894e-09
2	0	0	0	0	14.3155	-0.0173068	-0.017537	-0.000467261	1	3.57992e-06	8.19435e-09
2	0	0	0	0	14.4155	-0.0223071	-0.0225185	-0.000447794	1	3.53372e-06	1.00836e-08
2	0	0	0	0	14.5155	-0.0273073	-0.0275244	-0.00042818	1	3.48967e-06	1.17854e-08
2	0	0	0	0	14.6155	-0.0323075	-0.0325113	-0.00041051	1	3.44755e-06	1.33462e-08
2	0	0	0	0	14.7155	-0.0373077	-0.0374938	-0.000393406	1	3.40714e-06	1.47503e-08
2	0	0	0	0	14.8155	-0.0423079	-0.0425591	-0.000378341	1	3.36824e-06	1.61018e-08
2	0	0	0	0	14.9155	-0.0473081	-0.0475279	-0.000366983	1	3.33072e-06	1.74419e-08
2	0	0	0	0	15.0155	-0.0523083	-0.0525699	-0.00035872	1	3.29442e-06	1.88578e-08
2	0	0	0	0	15.1155	-0.0573085	-0.0575238	-0.000344477	1	3.2592e-06	1.98157e-08
2	0	0	0	0	15.2155	-0.0623087	-0.0625425	-0.000334561	1	3.22501e-06	2.09242e-08
2	0	0	0	0	15.3155	-0.0673089	-0.0675569	-0.000325935	1	3.19171e-06	2.20192e-08
2	0	0	0	0	15.4155	-0.0723091	-0.0725426	-0.000318038	1	3.15926e-06	2.30713e-08
2	0	0	0	0	15.5155	-0.0773093	-0.0775697	-0.00030896	1	3.12756e-06	2.3966e-08
2	0	0	0	0	15.6155	-0.0823095	-0.0825364	-0.000303288	1	3.09655e-06	2.50323e-08
2	0	0	0	0	15.7155	-0.0873097	-0.0875794	-0.000297454	1	3.06619e-06	2.60509e-08
2	0	0	0	0	15.8155	-0.0923099	-0.0925779	-0.000292978	1	3.03643e-06	2.71233e-08
2	0	0	0	0	15.9155	-0.0973101	-0.0975499	-0.000285992	1	3.0072e-06	2.78985e-08
2	0	0	1	0	16.0157	-0.10231	-0.102604	-0.000282132	1	2.97846e-06	2.89478e-08
2	0	0	1	0	16.1157	-0.107311	-0.107639	-0.000278357	1	2.95023e-06	2.99622e-08
2	0	0	1	0	16.2157	-0.112311	-0.112587	-0.000273193	1	2.92244e-06	3.07579e-08
2	0	0	1	0	16.3157	-0.117311	-0.117541	-0.000268826	1	2.89508e-06	3.1598e-08
2	0	0	1	0	16.4157	-0.122311	-0.122522	-0.000265926	1	2.86809e-06	3.25818e-08
2	0	0	1	0	16.5157	-0.127311	-0.127563	-0.000263818	1	2.84146e-06	3.36535e-08
2	0	0	1	0	16.6157	-0.132312	-0.132536	-0.000258798	1	2.81516e-06	3.43001e-08
2	0	0	1	0	16.7157	-0.137312	-0.137546	-0.000255082	1	2.78915e-06	3.50855e-08
2	0	0	1	0	16.8157	-0.142312	-0.142567	-0.000254119	1	2.76343e-06	3.6229e-08
2	0	0	1	0	16.9157	-0.147312	-0.147521	-0.000250325	1	2.73796e-06	3.69282e-08
2	0	0	1	0	17.0157	-0.152312	-0.152536	-0.000248247	1	2.71274e-06	3.78668e-08
2	0	0	1	0	17.1157	-0.157313	-0.157576	-0.000245808	1	2.68767e-06	3.87335e-08
2	0	0	1	0	17.2157	-0.162313	-0.162581	-0.000246294	1	2.66281e-06	4.00427e-08
2	0	0	1	0	17.3157	-0.167313	-0.167566	-0.000245345	1	2.63812e-06	4.11115e-08
2	0	0	1	0	17.4157	-0.172313	-0.172534	-0.000244091	1	2.61355e-06	4.21139e-08
2	0	0	1	0	17.5157	-0.177313	-0.177511	-0.000240714	1	2.58908e-06	4.27293e-08
2	0	0	1	0	17.6157	-0.182314	-0.18254	-0.000241897	1	2.56467e-06	4.4156e-08
2	0	0	1	0	17.7157	-0.187314	-0.187563	-0.000241293	1	2.54035e-06	4.52577e-08
2	0	0	1	0	17.8157	-0.192314	-0.192491	-0.00024278	1	2.51603e-06	4.67332e-08
2	0	0	1	0	17.9157	-0.197314	-0.197478	-0.00024165	1	2.49169e-06	4.77206e-08
2	1	0	0	1	18.0051	-0.198214	-0.198384	-0.000115162	1	2.47421e-06	2.28462e-08
2	1	0	0	1	18.1051	-0.193214	-0.19343	-9.19285e-05	1	2.46432e-06	1.77817e-08
2	1	0	0	1	18.2051	-0.188214	-0.188372	-7.52961e-05	1	2.45624e-06	1.41837e-08
2	1	0	0	1	18.3051	-0.183214	-0.183374	-6.61108e-05	1	2.44938e-06	1.2123e-08
2	1	0	0	1	18.4051	-0.178213	-0.17842	-5.81338e-05	1	2.44351e-06	1.03723e-08
2	1	0	0	1	18.5051	-0.173213	-0.173454	-4.99218e-05	1	2.43843e-06	8.65913e-09
2	1	0	0	1	18.6051	-0.168213	-0.168384	-4.35698e-05	1	2.43405e-06	7.33648e-09
2	1	0	0	1	18.7051	-0.163213	-0.163414	-3.68717e-05	1	2.4303e-06	6.02536e-09
2	1	0	0	1	18.8051	-0.158213	-0.158368	-3.35208e-05	1	2.42708e-06	5.30863e-09
2	1	0	0	1	18.9051	-0.153212	-0.153346	-2.78684e-05	1	2.4244e-06	4.27351e-09
2	1	0	0	1	19.0051	-0.148212	-0.148391	-2.36537e-05	1	2.42213e-06	3.51001e-09
2	1	0	0	1	19.1051	-0.143212	-0.143372	-1.80719e-05	1	2.42026e-06	2.591e-09
2	1	0	0	1	19.2051	-0.138212	-0.138419	-1.58533e-05	1	2.41881e-06	2.1944e-09
2	1	0	0	1	19.3051	-0.133212	-0.133386	-1.17447e-05	1	2.41771e-06	1.56658e-09
2	1	0	0	1	19.4051	-0.128211	-0.128427	-7.88335e-06	1	2.41694e-06	1.01244e-09
2	1	0	0	1	19.5051	-0.123211	-0.123399	-3.97078e-06	1	2.4165e-06	4.8999e-10
2	1	0	0	1	19.6051	-0.118211	-0.118389	-4.21984e-06	1	2.41634e-06	4.99582e-10
2	1	0	0	1	19.7051	-0.113211	-0.113405	-1.4678e-06	1	2.41649e-06	1.66456e-10
2	1	0	0	1	19.8051	-0.108211	-0.108372	3.05064e-06	1	2.41688e-06	-3.30603e-10
2	1	0	0	1	19.9051	-0.10321	-0.103397	5.32046e-06	1	2.41755e-06	-5.50117e-10
2	1	0	1	1	20.0053	-0.0982101	-0.0983959	6.1754e-06	2	2.41844e-06	-6.07634e-10
2	1	0	1	1	20.1053	-0.09321	-0.0933773	9.31075e-06	2	2.41957e-06	-8.69412e-10
2	1	0	1	1	20.2053	-0.0882097	-0.0883989	1.19091e-05	2	2.42095e-06	-1.05275e-09
2	1	0	1	1	20.3053	-0.0832095	-0.0833813	1.43697e-05	2	2.42252e-06	-1.19817e-09
2	1	0	1	1	20.4053	-0.0782093	-0.0784284	1.4209e-05	2	2.4243e-06	-1.11439e-09
2	1	0	1	1	20.5053	-0.0732091	-0.0734151	1.67914e-05	2	2.42629e-06	-1.23274e-09
2	1	0	1	1	20.6053	-0.0682089	-0.0684633	1.87221e-05	2	2.42848e-06	-1.28178e-09
2	1	0	1	1	20.7053	-0.0632087	-0.0633969	2.22072e-05	2	2.43086e-06	-1.40787e-09
2	1	0	1	1	20.8053	-0.0582085	-0.0584281	2.2315e-05	2	2.43341e-06	-1.30382e-09
2	1	0	1	1	20.9053	-0.0532083	-0.053418	2.45653e-05	2	2.43617e-06	-1.31223e-09
2	1	0	1	1	21.0053	-0.0482081	-0.0483887	2.7328e-05	2	2.43915e-06	-1.32237e-09
2	1	0	1	1	21.1053	-0.0432079	-0.0434051	2.91845e-05	2	2.44231e-06	-1.26675e-09
2	1	0	1	1	21.2053	-0.0382077	-0.0383451	3.1366e-05	2	2.4457e-06	-1.20273e-09
2	1	0	1	1	21.3053	-0.0332075	-0.0333965	3.45578e-05	2	2.44932e-06	-1.15411e-09
2	1	0	1	1	21.4053	-0.0282073	-0.0284224	3.73682e-05	2	2.45322e-06	-1.06209e-09
2	1	0	1	1	21.5053	-0.0232071	-0.0233815	4.0636e-05	2	2.45746e-06	-9.50129e-10
2	1	0	1	1	21.6053	-0.0182069	-0.0183893	4.5135e-05	2	2.46207e-06	-8.30003e-10
2	1	0	1	1	21.7053	-0.0132067	-0.0133845	5.23455e-05	2	2.46717e-06	-7.00617e-10
2	1	0	1	1	21.8053	-0.00820648	-0.00844006	5.74927e-05	2	2.47286e-06	-4.85242e-10
2	1	0	1	1	21.9053	-0.00320627	-0.00347974	6.63194e-05	2	2.47931e-06	-2.30774e-10
2	1	0	1	1	22.0053	0.00179393	0.00155374	7.6704e-05	2	2.48683e-06	1.19178e-10
2	1	0	1	1	22.1053	0.00679413	0.00659781	9.13846e-05	2	2.49557e-06	6.02938e-10
2	1	0	1	1	22.2053	0.0117943	0.0115878	0.00011235	2	2.50599e-06	1.30189e-09
2	1	0	1	1	22.3053	0.0167945	0.0166011	0.000136684	2	2.51861e-06	2.26911e-09
2	1	0	1	1	22.4053	0.0217947	0.021641	0.00016667	2	2.534e-06	3.6069e-09
2	1	0	1	1	22.5053	0.0267949	0.0266458	0.000206647	2	2.55295e-06	5.50628e-09
2	1	0	1	1	22.6053	0.0317951	0.0316008	0.000256675	2	2.57628e-06	8.11115e-09
2	1	0	1	1	22.7053	0.0367953	0.0366396	0.000313279	2	2.60491e-06	1.14784e-08
2	1	0	1	1	22.8053	0.0417955	0.0416434	0.000378779	2	2.63979e-06	1.57736e-08
2	1	0	1	1	22.9053	0.0467957	0.0466133	0.000454045	2	2.68172e-06	2.11645e-08
2	1	0	1	1	23.0053	0.0517959	0.0516648	0.000533305	2	2.73133e-06	2.75531e-08
2	1	0	1	1	23.1053	0.0567961	0.0566314	0.000610085	2	2.7888e-06	3.455e-08
2	1	0	1	1	23.2053	0.0617963	0.0616257	0.000682465	2	2.85387e-06	4.20574e-08
2	1	0	1	1	23.3053	0.0667965	0.0666327	0.000747341	2	2.92583e-06	4.97973e-08
2	1	0	1	1	23.4053	0.0717967	0.0716248	0.000798084	2	3.00348e-06	5.71626e-08
2	1	0	1	1	23.5053	0.0767969	0.0766116	0.000831981	2	3.08534e-06	6.37394e-08
2	1	0	1	1	23.6053	0.0817971	0.0816451	0.000849121	2	3.16983e-06	6.93265e-08
2	1	0	1	1	23.7053	0.0867973	0.0866478	0.000852987	2	3.25537e-06	7.39095e-08
2	1	0	1	1	23.8053	0.0917976	0.0916208	0.000846441	2	3.34071e-06	7.75516e-08
2	1	0	1	1	23.9053	0.0967978	0.0966649	0.000829323	2	3.42476e-06	8.01664e-08
2	1	0	1	1	24.0053	0.101798	0.101607	0.000804789	2	3.50682e-06	8.17724e-08
2	1	0	1	1	24.1053	0.106798	0.106623	0.000779864	2	3.58648e-06	8.31512e-08
2	1	0	1	1	24.2053	0.111798	0.111623	0.000755401	2	3.66353e-06	8.43203e-08
2	1	0	1	1	24.3053	0.116799	0.116624	0.000728078	2	3.73796e-06	8.49113e-08
2	1	0	1	1	24.4053	0.121799	0.121595	0.000701932	2	3.80981e-06	8.53513e-08
2	1	0	1	1	24.5053	0.126799	0.126603	0.000680207	2	3.87922e-06	8.61162e-08
2	1	0	1	1	24.6053	0.131799	0.131625	0.00065796	2	3.9464e-06	8.66037e-08
2	1	0	1	1	24.7053	0.136799	0.136639	0.000636597	2	4.01149e-06	8.6984e-08
2	1	0	1	1	24.8053	0.1418	0.141597	0.000619042	2	4.07468e-06	8.76547e-08
2	1	0	1	1	24.9053	0.1468	0.146618	0.000604355	2	4.13614e-06	8.86093e-08
2	1	0	0	1	25.0055	0.1518	0.15158	0.000588148	2	4.19613e-06	8.91517e-08
2	1	0	0	1	25.1055	0.1568	0.156653	0.000575971	2	4.25464e-06	9.02276e-08
2	1	0	0	1	25.2055	0.1618	0.161655	0.000562216	2	4.31183e-06	9.08848e-08
2	1	0	0	1	25.3055	0.166801	0.166652	0.000552391	2	4.36785e-06	9.20572e-08
2	1	0	0	1	25.4055	0.171801	0.17161	0.000540943	2	4.42281e-06	9.28314e-08
2	1	0	0	1	25.5055	0.176801	0.176618	0.000532538	2	4.47681e-06	9.40561e-08
2	1	0	0	1	25.6055	0.181801	0.181657	0.000523664	2	4.52992e-06	9.51273e-08
2	1	0	0	1	25.7055	0.186801	0.186632	0.000515993	2	4.58224e-06	9.63009e-08
2	1	0	0	1	25.8055	0.191802	0.191652	0.000509761	2	4.63384e-06	9.76967e-08
2	1	0	0	1	25.9055	0.196802	0.196624	0.000502594	2	4.68477e-06	9.88221e-08
2	1	0	0	1	26.0055	0.201802	0.201559	0.000498173	2	4.73512e-06	1.00411e-07
2	1	0	0	1	26.1055	0.206802	0.206621	0.000491342	2	4.78496e-06	1.01522e-07
2	1	0	0	1	26.2055	0.211802	0.211626	0.000489929	2	4.83432e-06	1.03682e-07
2	1	0	0	1	26.3055	0.216803	0.216644	0.00048595	2	4.88324e-06	1.05278e-07
2	1	0	0	1	26.4055	0.221803	0.221615	0.000479852	2	4.93181e-06	1.06343e-07
2	1	0	0	1	26.5055	0.226803	0.226619	0.000476968	2	4.98003e-06	1.0809e-07
2	1	0	0	1	26.6055	0.231803	0.231639	0.000474087	2	5.028e-06	1.09817e-07
2	1	0	0	1	26.7055	0.236803	0.236555	0.000473359	2	5.07571e-06	1.11975e-07
2	1	0	0	1	26.8055	0.241804	0.241624	0.000470831	2	5.12323e-06	1.13764e-07
2	1	0	0	1	26.9055	0.246804	0.246641	0.000469275	2	5.17061e-06	1.15742e-07
2	1	0	0	1	27.0055	0.251804	0.251608	0.000468736	2	5.21789e-06	1.17938e-07
2	1	0	0	1	27.1055	0.256804	0.256649	0.000471169	2	5.26515e-06	1.20925e-07
2	1	0	0	1	27.2055	0.261804	0.261667	0.000468385	2	5.31239e-06	1.22561e-07
2	1	0	0	1	27.3055	0.266805	0.266681	0.000468319	2	5.35967e-06	1.24892e-07
2	1	0	0	1	27.4055	0.271805	0.271628	0.000472303	2	5.40707e-06	1.28291e-07
2	1	0	0	1	27.5055	0.276805	0.276625	0.000474127	2	5.45462e-06	1.31156e-07
2	1	0	0	1	27.6055	0.281805	0.281661	0.000475588	2	5.50239e-06	1.33955e-07
2	1	0	0	1	27.7055	0.286805	0.286668	0.000477789	2	5.5504e-06	1.36967e-07
2	1	0	0	1	27.8055	0.291806	0.291638	0.000482147	2	5.59872e-06	1.40612e-07
2	1	0	0	1	27.9055	0.296806	0.296588	0.000485709	2	5.64743e-06	1.44056e-07
2	0	0	0	1	27.9951	0.298706	0.298508	0.000372552	2	5.68846e-06	1.1121e-07
2	0	0	0	1	28.0951	0.293706	0.293484	0.000331136	2	5.72312e-06	9.71832e-08
2	0	0	0	1	28.1951	0.288705	0.288538	0.000308646	2	5.75488e-06	8.9056e-08
2	0	0	0	1	28.2951	0.283705	0.283555	0.000291694	2	5.7846e-06	8.27113e-08
2	0	0	0	1	28.3951	0.278705	0.278522	0.000276102	2	5.81274e-06	7.69004e-08
2	0	0	0	1	28.4951	0.273705	0.273478	0.00026412	2	5.83959e-06	7.2231e-08
2	0	0	0	1	28.5951	0.268705	0.268517	0.000254432	2	5.86534e-06	6.83193e-08
2	0	0	0	1	28.6951	0.263704	0.263534	0.000246571	2	5.89013e-06	6.49799e-08
2	0	0	0	1	28.7951	0.258704	0.25848	0.000237644	2	5.91407e-06	6.14262e-08
2	0	0	0	1	28.8951	0.253704	0.253447	0.000229437	2	5.93725e-06	5.81501e-08
2	0	0	0	1	28.9951	0.248704	0.248531	0.000224687	2	5.95978e-06	5.58418e-08
2	0	0	0	1	29.0951	0.243704	0.243491	0.000217857	2	5.98168e-06	5.30462e-08
2	0	0	0	1	29.1951	0.238703	0.238476	0.000214317	2	6.00302e-06	5.11094e-08
2	0	0	0	1	29.2951	0.233703	0.233509	0.000208974	2	6.02383e-06	4.87972e-08
2	0	0	0	1	29.3951	0.228703	0.228503	0.000201666	2	6.04415e-06	4.60813e-08
2	0	0	0	1	29.4951	0.223703	0.223487	0.000198884	2	6.06401e-06	4.44479e-08
2	0	0	0	1	29.5951	0.218703	0.218494	0.000193934	2	6.08342e-06	4.23736e-08
2	0	0	0	1	29.6951	0.213702	0.213535	0.000191138	2	6.10241e-06	4.08147e-08
2	0	0	0	1	29.7951	0.208702	0.208545	0.000186572	2	6.121e-06	3.89087e-08
2	0	0	0	1	29.8951	0.203702	0.20351	0.000180833	2	6.13916e-06	3.68013e-08
2	0	0	0	1	29.9951	0.198702	0.198474	0.00017954	2	6.15701e-06	3.5634e-08
2	0	0	0	1	30.0951	0.193702	0.193521	0.000175995	2	6.17447e-06	3.40587e-08
2	0	0	0	1	30.1951	0.188701	0.188472	0.000171946	2	6.19154e-06	3.2407e-08
2	0	0	0	1	30.2951	0.183701	0.183483	0.000168242	2	6.20826e-06	3.08695e-08
2	0	0	0	1	30.3951	0.178701	0.178507	0.000164397	2	6.22461e-06	2.93459e-08
2	0	0	0	1	30.4951	0.173701	0.173452	0.00015967	2	6.24059e-06	2.7695e-08
2	0	0	0	1	30.5951	0.168701	0.168494	0.000156921	2	6.25622e-06	2.64403e-08
2	0	0	0	1	30.6951	0.1637	0.163513	0.000151649	2	6.27145e-06	2.47966e-08
2	0	0	0	1	30.7951	0.1587	0.158523	0.000147824	2	6.28631e-06	2.34336e-08
2	0	0	0	1	30.8951	0.1537	0.153495	0.000144977	2	6.30078e-06	2.22532e-08
2	0	0	0	1	30.9951	0.1487	0.148517	0.000140399	2	6.31479e-06	2.08515e-08
2	0	0	1	1	31.0953	0.1437	0.143472	0.00013534	2	6.32842e-06	1.94174e-08
2	0	0	1	1	31.1953	0.138699	0.13847	0.000130636	2	6.34153e-06	1.80891e-08
2	0	0	1	1	31.2953	0.133699	0.133505	0.000126937	2	6.35411e-06	1.69467e-08
2	0	0	1	1	31.3953	0.128699	0.128452	0.000118039	2	6.36611e-06	1.51624e-08
2	0	0	1	1	31.4953	0.123699	0.123524	0.00011141	2	6.3774e-06	1.37619e-08
2	0	0	1	1	31.5953	0.118699	0.118503	0.000104253	2	6.38791e-06	1.23543e-08
2	0	0	1	1	31.6953	0.113698	0.113476	9.27376e-05	2	6.39749e-06	1.05235e-08
2	0	0	1	1	31.7953	0.108698	0.10846	8.05866e-05	2	6.40594e-06	8.74041e-09
2	0	0	1	1	31.8953	0.103698	0.103487	6.61357e-05	2	6.41302e-06	6.84417e-09
2	0	0	1	1	31.9953	0.0986978	0.0984926	4.77811e-05	2	6.41842e-06	4.70608e-09
2	0	0	1	1	32.0953	0.0936976	0.0934867	2.52136e-05	2	6.42174e-06	2.35714e-09
2	0	0	1	1	32.1953	0.0886974	0.0885465	-7.78796e-06	2	6.42247e-06	-6.89597e-10
2	0	0	1	1	32.2953	0.0836972	0.0835003	-4.03868e-05	2	6.41999e-06	-3.37231e-09
2	0	0	1	1	32.3953	0.078697	0.0785357	-8.24553e-05	2	6.41356e-06	-6.47569e-09
2	0	0	1	1	32.4953	0.0736968	0.073533	-0.000137237	2	6.40229e-06	-1.00914e-08
2	0	0	1	1	32.5953	0.0686966	0.0684974	-0.000198336	2	6.38533e-06	-1.35855e-08
2	0	0	1	1	32.6953	0.0636964	0.0635201	-0.00026899	2	6.36171e-06	-1.70863e-08
2	0	0	1	1	32.7953	0.0586962	0.0585216	-0.000347229	2	6.33058e-06	-2.03204e-08
2	0	0	1	1	32.8953	0.053696	0.0534871	-0.000428605	2	6.29143e-06	-2.29249e-08
2	0	0	1	1	32.9953	0.0486958	0.0484621	-0.000513613	2	6.24398e-06	-2.48908e-08
2	0	0	1	1	33.0953	0.0436956	0.0434933	-0.000587267	2	6.18863e-06	-2.55422e-08
2	0	0	1	1	33.1953	0.0386954	0.038481	-0.000649859	2	6.12638e-06	-2.50072e-08
2	0	0	1	1	33.2953	0.0336952	0.0334667	-0.000697279	2	6.05864e-06	-2.33356e-08
2	0	0	1	1	33.3953	0.028695	0.028535	-0.000724047	2	5.98722e-06	-2.06607e-08
2	0	0	1	1	33.4953	0.0236948	0.0235036	-0.000731325	2	5.91408e-06	-1.71888e-08
2	0	0	1	1	33.5953	0.0186946	0.0184966	-0.000723622	2	5.84096e-06	-1.33846e-08
2	0	0	1	1	33.6953	0.0136944	0.013513	-0.000703923	2	5.76929e-06	-9.51211e-09
2	0	0	1	1	33.7953	0.00869421	0.00847105	-0.000675615	2	5.70006e-06	-5.72316e-09
2	0	0	1	1	33.8953	0.003694	0.00347044	-0.000643413	2	5.63386e-06	-2.23293e-09
2	0	0	1	1	33.9953	-0.0013062	-0.00160225	-0.000609873	2	5.57091e-06	9.77172e-10
2	0	0	1	1	34.0953	-0.0063064	-0.00653502	-0.00057697	2	5.51124e-06	3.77051e-09
2	0	0	1	1	34.1953	-0.0113066	-0.0115494	-0.000547251	2	5.45473e-06	6.32042e-09
2	0	0	1	1	34.2953	-0.0163068	-0.0165553	-0.000519497	2	5.40112e-06	8.60044e-09
2	0	0	1	1	34.3953	-0.021307	-0.0215782	-0.000493681	2	5.35017e-06	1.06527e-08
2	0	0	1	1	34.4953	-0.0263072	-0.0265724	-0.000472133	2	5.30158e-06	1.25457e-08
2	0	0	1	1	34.5953	-0.0313074	-0.0315275	-0.000451042	2	5.25513e-06	1.42202e-08
2	0	0	1	1	34.6953	-0.0363076	-0.0365291	-0.000433053	2	5.21058e-06	1.58191e-08
2	0	0	1	1	34.7953	-0.0413078	-0.0416114	-0.000416982	2	5.16769e-06	1.73512e-08
2	0	0	1	1	34.8953	-0.046308	-0.0465007	-0.000403363	2	5.12633e-06	1.87567e-08
2	0	0	1	1	34.9953	-0.0513082	-0.0515469	-0.000391984	2	5.08633e-06	2.02056e-08
2	0	0	1	1	35.0953	-0.0563084	-0.0565973	-0.00037833	2	5.04752e-06	2.14125e-08
2	0	0	1	1	35.1953	-0.0613086	-0.0615778	-0.000368276	2	5.00984e-06	2.26776e-08
2	0	0	1	1	35.2953	-0.0663089	-0.0665338	-0.00035946	2	4.97317e-06	2.39162e-08
2	0	0	1	1	35.3953	-0.071309	-0.0715313	-0.000350317	2	4.93745e-06	2.50586e-08
2	0	0	1	1	35.4953	-0.0763093	-0.0765467	-0.000342022	2	4.90256e-06	2.61807e-08
2	0	0	1	1	35.5953	-0.0813095	-0.081541	-0.000333487	2	4.86846e-06	2.71928e-08
2	0	0	1	1	35.6953	-0.0863097	-0.0865522	-0.000328288	2	4.83507e-06	2.84141e-08
2	0	0	1	1	35.7953	-0.0913099	-0.0915591	-0.00032109	2	4.80236e-06	2.93987e-08
2	0	0	1	1	35.8953	-0.0963101	-0.0965492	-0.000315058	2	4.77029e-06	3.04186e-08
2	0	0	0	1	35.9955	-0.10131	-0.101582	-0.000308828	2	4.73874e-06	3.13712e-08
2	0	0	0	1	36.0955	-0.10631	-0.106568	-0.000302418	2	4.70777e-06	3.22282e-08
2	0	0	0	1	36.1955	-0.111311	-0.111583	-0.000298982	2	4.67732e-06	3.33612e-08
2	0	0	0	1	36.2955	-0.116311	-0.116538	-0.000295184	2	4.64734e-06	3.44001e-08
2	0	0	0	1	36.3955	-0.121311	-0.121542	-0.000290602	2	4.61778e-06	3.53202e-08
2	0	0	0	1	36.4955	-0.126311	-0.126545	-0.000284895	2	4.58865e-06	3.60521e-08
2	0	0	0	1	36.5955	-0.131311	-0.131534	-0.0002836	2	4.55988e-06	3.73032e-08
2	0	0	0	1	36.6955	-0.136312	-0.136547	-0.000278555	2	4.53148e-06	3.80358e-08
2	0	0	0	1	36.7955	-0.141312	-0.141502	-0.000275275	2	4.50342e-06	3.89519e-08
2	0	0	0	1	36.8955	-0.146312	-0.14655	-0.000273835	2	4.47564e-06	4.01306e-08
2	0	0	0	1	36.9955	-0.151312	-0.151528	-0.000268913	2	4.44815e-06	4.07479e-08
2	0	0	0	1	37.0955	-0.156313	-0.156542	-0.000266939	2	4.42089e-06	4.17871e-08
2	0	0	0	1	37.1955	-0.161313	-0.161578	-0.000264502	2	4.39389e-06	4.27377e-08
2	0	0	0	1	37.2955	-0.166313	-0.166566	-0.000262843	2	4.36708e-06	4.37808e-08
2	0	0	0	1	37.3955	-0.171313	-0.171546	-0.000262603	2	4.34045e-06	4.50484e-08
2	0	0	0	1	37.4955	-0.176313	-0.176537	-0.000261216	2	4.31395e-06	4.61143e-08
2	0	0	0	1	37.5955	-0.181314	-0.181543	-0.000259273	2	4.28758e-06	4.70691e-08
2	0	0	0	1	37.6955	-0.186314	-0.186533	-0.000260298	2	4.2613e-06	4.8554e-08
2	0	0	0	1	37.7955	-0.191314	-0.191511	-0.000259683	2	4.23508e-06	4.97321e-08
2	0	0	0	1	37.8955	-0.196314	-0.196537	-0.000258005	2	4.20888e-06	5.07075e-08
2	1	0	1	0	37.9849	-0.199214	-0.199416	-0.000143894	2	4.1873e-06	2.86948e-08
2	1	0	1	0	38.0849	-0.194214	-0.194428	-0.000112475	2	4.17525e-06	2.18684e-08
2	1	0	1	0	38.1849	-0.189214	-0.189417	-9.74767e-05	2	4.16525e-06	1.84638e-08
2	1	0	1	0	38.2849	-0.184214	-0.184438	-8.49318e-05	2	4.15653e-06	1.56646e-08
2	1	0	1	0	38.3849	-0.179213	-0.179387	-7.62605e-05	2	4.14883e-06	1.36802e-08
2	1	0	1	0	38.4849	-0.174213	-0.17442	-6.93751e-05	2	4.14196e-06	1.21004e-08
2	1	0	1	0	38.5849	-0.169213	-0.169448	-6.30744e-05	2	4.1358e-06	1.06878e-08
2	1	0	1	0	38.6849	-0.164213	-0.164409	-5.58781e-05	2	4.13029e-06	9.18685e-09
2	1	0	1	0	38.7849	-0.159213	-0.159423	-4.94343e-05	2	4.12534e-06	7.88096e-09
2	1	0	1	0	38.8849	-0.154212	-0.154386	-4.57001e-05	2	4.12093e-06	7.05548e-09
2	1	0	1	0	38.9849	-0.149212	-0.149449	-4.07613e-05	2	4.11695e-06	6.09175e-09
2	1	0	1	0	39.0849	-0.144212	-0.144396	-3.66191e-05	2	4.11341e-06	5.28764e-09
2	1	0	1	0	39.1849	-0.139212	-0.139355	-3.25758e-05	2	4.1103e-06	4.5396e-09
2	1	0	1	0	39.2849	-0.134212	-0.134413	-2.89953e-05	2	4.10755e-06	3.89733e-09
2	1	0	1	0	39.3849	-0.129211	-0.129416	-2.63104e-05	2	4.10516e-06	3.40499e-09
2	1	0	1	0	39.4849	-0.124211	-0.124429	-2.32051e-05	2	4.10312e-06	2.88739e-09
2	1	0	1	0	39.5849	-0.119211	-0.119372	-1.94003e-05	2	4.10139e-06	2.31584e-09
2	1	0	1	0	39.6849	-0.114211	-0.114407	-1.65987e-05	2	4.09998e-06	1.89901e-09
2	1	0	1	0	39.7849	-0.109211	-0.109389	-1.55177e-05	2	4.09883e-06	1.69747e-09
2	1	0	1	0	39.8849	-0.10421	-0.104427	-1.00719e-05	2	4.09797e-06	1.05178e-09
2	1	0	1	0	39.9849	-0.0992102	-0.0994274	-7.38346e-06	3	4.09738e-06	7.34118e-10
2	1	0	0	0	40.0851	-0.09421	-0.0944278	-5.90675e-06	3	4.09701e-06	5.57762e-10
2	1	0	0	0	40.1851	-0.0892098	-0.089459	-5.15603e-06	3	4.0969e-06	4.61254e-10
2	1	0	0	0	40.2851	-0.0842096	-0.0844076	-1.95003e-06	3	4.09702e-06	1.64597e-10
2	1	0	0	0	40.3851	-0.0792094	-0.0793794	9.60995e-07	3	4.09735e-06	-7.62832e-11
2	1	0	0	0	40.4851	-0.0742092	-0.0743862	2.75035e-06	3	4.09791e-06	-2.04588e-10
2	1	0	0	0	40.5851	-0.069209	-0.0694343	4.23413e-06	3	4.09866e-06	-2.93994e-10
2	1	0	0	0	40.6851	-0.0642088	-0.0644231	7.20167e-06	3	4.09962e-06	-4.63954e-10
2	1	0	0	0	40.7851	-0.0592086	-0.0593663	8.9716e-06	3	4.10078e-06	-5.32611e-10
2	1	0	0	0	40.8851	-0.0542084	-0.0544378	1.00297e-05	3	4.10214e-06	-5.45993e-10
2	1	0	0	0	40.9851	-0.0492081	-0.0493471	1.2545e-05	3	4.10375e-06	-6.1906e-10
2	1	0	0	0	41.0851	-0.0442079	-0.0444037	1.48996e-05	3	4.10552e-06	-6.61599e-10
2	1	0	0	0	41.1851	-0.0392077	-0.0393978	1.87804e-05	3	4.10753e-06	-7.39907e-10
2	1	0	0	0	41.2851	-0.0342075	-0.0343824	1.91036e-05	3	4.10979e-06	-6.56829e-10
2	1	0	0	0	41.3851	-0.0292073	-0.0293977	2.22319e-05	3	4.11232e-06	-6.53567e-10
2	1	0	0	0	41.4851	-0.0242071	-0.0244151	2.7199e-05	3	4.1152e-06	-6.64067e-10
2	1	0	0	0	41.5851	-0.0192069	-0.0193858	3.02938e-05	3	4.11844e-06	-5.8727e-10
2	1	0	0	0	41.6851	-0.0142067	-0.0143439	3.57714e-05	3	4.12217e-06	-5.13101e-10
2	1	0	0	0	41.7851	-0.00920652	-0.00940265	4.32874e-05	3	4.1265e-06	-4.07016e-10
2	1	0	0	0	41.8851	-0.00420631	-0.00441371	4.99555e-05	3	4.13157e-06	-2.20489e-10
2	1	0	0	0	41.9851	0.000793888	0.000605985	6.23486e-05	3	4.13766e-06	3.77823e-11
2	1	0	0	0	42.0851	0.00579409	0.00565748	7.49659e-05	3	4.14494e-06	4.24118e-10
2	1	0	0	0	42.1851	0.0107943	0.0106157	9.31651e-05	3	4.15383e-06	9.89011e-10
2	1	0	0	0	42.2851	0.0157945	0.015593	0.000117494	3	4.16479e-06	1.83207e-09
2	1	0	0	0	42.3851	0.0207947	0.020583	0.00014663	3	4.17841e-06	3.01809e-09
2	1	0	0	0	42.4851	0.0257949	0.0255931	0.00018449	3	4.19536e-06	4.72166e-09
2	1	0	0	0	42.5851	0.0307951	0.0306308	0.000231209	3	4.21645e-06	7.08212e-09
2	1	0	0	0	42.6851	0.0357953	0.0356219	0.000285186	3	4.24255e-06	1.01589e-08
2	1	0	0	0	42.7851	0.0407955	0.0405589	0.00034868	3	4.27459e-06	1.41421e-08
2	1	0	0	0	42.8851	0.0457957	0.0455743	0.000419229	3	4.31335e-06	1.91061e-08
2	1	0	0	0	42.9851	0.0507959	0.0506248	0.000496735	3	4.35949e-06	2.51471e-08
2	1	0	0	0	43.0851	0.0557961	0.0556879	0.000573146	3	4.41341e-06	3.19173e-08
2	1	0	0	0	43.1851	0.0607963	0.0606154	0.000648096	3	4.47492e-06	3.92846e-08
2	1	0	0	0	43.2851	0.0657965	0.065687	0.00071456	3	4.54357e-06	4.69373e-08
2	1	0	0	0	43.3851	0.0707967	0.0705933	0.000769172	3	4.61832e-06	5.42984e-08
2	1	0	0	0	43.4851	0.0757969	0.0756161	0.000811308	3	4.69789e-06	6.13479e-08
2	1	0	0	0	43.5851	0.0807971	0.0806464	0.00083765	3	4.78079e-06	6.75535e-08
2	1	0	0	0	43.6851	0.0857973	0.0856492	0.000845706	3	4.86546e-06	7.2434e-08
2	1	0	0	0	43.7851	0.0907975	0.0906413	0.000844586	3	4.9505e-06	7.65544e-08
2	1	0	0	0	43.8851	0.0957977	0.0956313	0.000832211	3	5.03477e-06	7.95854e-08
2	1	0	0	0	43.9851	0.100798	0.100613	0.000811541	3	5.11741e-06	8.16514e-08
2	1	0	0	0	44.0851	0.105798	0.105581	0.000789134	3	5.19786e-06	8.33172e-08
2	1	0	0	0	44.1851	0.110798	0.110629	0.000762133	3	5.27581e-06	8.43139e-08
2	1	0	0	0	44.2851	0.115798	0.115602	0.000737145	3	5.35114e-06	8.52154e-08
2	1	0	0	0	44.3851	0.120799	0.120572	0.000711382	3	5.42385e-06	8.57726e-08
2	1	0	0	0	44.4851	0.125799	0.125619	0.000687246	3	5.49403e-06	8.63312e-08
2	1	0	0	0	44.5851	0.130799	0.13065	0.000662771	3	5.56185e-06	8.65913e-08
2	1	0	0	0	44.6851	0.135799	0.135636	0.000641905	3	5.62746e-06	8.70655e-08
2	1	0	0	0	44.7851	0.1408	0.140591	0.000622835	3	5.69104e-06	8.75651e-08
2	1	0	0	0	44.8851	0.1458	0.145597	0.000605326	3	5.75275e-06	8.81337e-08
2	1	0	1	0	44.9853	0.1508	0.150628	0.000589146	3	5.81287e-06	8.87421e-08
2	1	0	1	0	45.0853	0.1558	0.155681	0.000574252	3	5.87137e-06	8.94001e-08
2	1	0	1	0	45.1853	0.1608	0.160603	0.000561294	3	5.92844e-06	9.01455e-08
2	1	0	1	0	45.2853	0.165801	0.165587	0.000548452	3	5.98423e-06	9.08164e-08
2	1	0	1	0	45.3853	0.170801	0.170698	0.000538276	3	6.03884e-06	9.18824e-08
2	1	0	1	0	45.4853	0.175801	0.175621	0.000527827	3	6.09238e-06	9.26975e-08
2	1	0	1	0	45.5853	0.180801	0.180634	0.000518882	3	6.14496e-06	9.37279e-08
2	1	0	1	0	45.6853	0.185801	0.1856	0.000508902	3	6.19662e-06	9.44521e-08
2	1	0	1	0	45.7853	0.190802	0.190603	0.000502077	3	6.24747e-06	9.56971e-08
2	1	0	1	0	45.8853	0.195802	0.195615	0.00049532	3	6.29758e-06	9.6892e-08
2	1	0	1	0	45.9853	0.200802	0.200642	0.000487584	3	6.34701e-06	9.78297e-08
2	1	0	1	0	46.0853	0.205802	0.205668	0.00048126	3	6.39584e-06	9.89797e-08
2	1	0	1	0	46.1853	0.210802	0.210619	0.000476703	3	6.44408e-06	1.00403e-07
2	1	0	1	0	46.2853	0.215803	0.215639	0.000472739	3	6.4918e-06	1.01941e-07
2	1	0	1	0	46.3853	0.220803	0.22064	0.000467553	3	6.53907e-06	1.03161e-07
2	1	0	1	0	46.4853	0.225803	0.225589	0.000462969	3	6.58591e-06	1.04441e-07
2	1	0	1	0	46.5853	0.230803	0.230613	0.000460966	3	6.63236e-06	1.06305e-07
2	1	0	1	0	46.6853	0.235803	0.235611	0.000457189	3	6.67848e-06	1.07719e-07
2	1	0	1	0	46.7853	0.240804	0.24061	0.000453669	3	6.72429e-06	1.09157e-07
2	1	0	1	0	46.8853	0.245804	0.245591	0.000451074	3	6.76983e-06	1.1078e-07
2	1	0	1	0	46.9853	0.250804	0.250611	0.000449359	3	6.81517e-06	1.12614e-07
2	1	0	1	0	47.0853	0.255804	0.255669	0.000449445	3	6.86037e-06	1.14909e-07
2	1	0	1	0	47.1853	0.260804	0.260641	0.000448189	3	6.9054e-06	1.16816e-07
2	1	0	1	0	47.2853	0.265805	0.265642	0.000446225	3	6.95035e-06	1.18536e-07
2	1	0	1	0	47.3853	0.270805	0.270638	0.000446494	3	6.99533e-06	1.20838e-07
2	1	0	1	0	47.4853	0.275805	0.275587	0.000448295	3	7.04031e-06	1.23545e-07
2	1	0	1	0	47.5853	0.280805	0.280663	0.000451175	3	7.08541e-06	1.26628e-07
2	1	0	1	0	47.6853	0.285805	0.285654	0.000450329	3	7.13064e-06	1.28638e-07
2	1	0	1	0	47.7853	0.290806	0.290634	0.000452266	3	7.17606e-06	1.31444e-07
2	1	0	1	0	47.8853	0.295806	0.295654	0.000455868	3	7.22173e-06	1.34779e-07
2	0	0	1	0	47.9749	0.299706	0.299506	0.000360557	3	7.26228e-06	1.07989e-07
2	0	0	1	0	48.0749	0.294706	0.294489	0.00031628	3	7.2952e-06	9.31412e-08
2	0	0	1	0	48.1749	0.289706	0.289461	0.000292455	3	7.32522e-06	8.46544e-08
2	0	0	1	0	48.2749	0.284705	0.284487	0.000277799	3	7.3534e-06	7.90303e-08
2	0	0	1	0	48.3749	0.279705	0.279505	0.000264755	3	7.38015e-06	7.40001e-08
2	0	0	1	0	48.4749	0.274705	0.274535	0.000252764	3	7.40573e-06	6.93925e-08
2	0	0	1	0	48.5749	0.269705	0.269547	0.000244441	3	7.43031e-06	6.58883e-08
2	0	0	1	0	48.6749	0.264705	0.264588	0.000236029	3	7.45402e-06	6.24504e-08
2	0	0	1	0	48.7749	0.259704	0.259548	0.000228618	3	7.47696e-06	5.93372e-08
2	0	0	1	0	48.8749	0.254704	0.254499	0.000222575	3	7.4992e-06	5.66451e-08
2	0	0	1	0	48.9749	0.249704	0.249504	0.000216588	3	7.52085e-06	5.40397e-08
2	0	0	1	0	49.0749	0.244704	0.244455	0.000210982	3	7.54193e-06	5.15755e-08
2	0	0	1	0	49.1749	0.239703	0.239492	0.00020551	3	7.56248e-06	4.9218e-08
2	0	0	1	0	49.2749	0.234703	0.234516	0.000201758	3	7.58255e-06	4.73154e-08
2	0	0	1	0	49.3749	0.229703	0.22953	0.000194934	3	7.60216e-06	4.47433e-08
2	0	0	1	0	49.4749	0.224703	0.224528	0.000191488	3	7.62133e-06	4.29943e-08
2	0	0	1	0	49.5749	0.219703	0.219482	0.000188572	3	7.64009e-06	4.13882e-08
2	0	0	1	0	49.6749	0.214702	0.214477	0.000184362	3	7.65843e-06	3.95414e-08
2	0	0	1	0	49.7749	0.209702	0.209477	0.000181418	3	7.6764e-06	3.80028e-08
2	0	0	1	0	49.8749	0.204702	0.204475	0.000176724	3	7.69399e-06	3.61358e-08
2	0	0	1	0	49.9749	0.199702	0.199376	0.000172119	3	7.71119e-06	3.43165e-08
2	0	0	1	0	50.0749	0.194702	0.194492	0.000169307	3	7.72804e-06	3.29289e-08
2	0	0	1	0	50.1749	0.189701	0.189513	0.000165513	3	7.74454e-06	3.13668e-08
2	0	0	1	0	50.2749	0.184701	0.184477	0.000162033	3	7.76069e-06	2.98914e-08
2	0	0	1	0	50.3749	0.179701	0.179521	0.00015819	3	7.77649e-06	2.83984e-08
2	0	0	1	0	50.4749	0.174701	0.174515	0.000155234	3	7.79192e-06	2.70908e-08
2	0	0	1	0	50.5749	0.169701	0.169542	0.000151189	3	7.80698e-06	2.5633e-08
2	0	0	1	0	50.6749	0.1647	0.164478	0.000146842	3	7.82169e-06	2.41523e-08
2	0	0	1	0	50.7749	0.1597	0.159444	0.000142794	3	7.83601e-06	2.27677e-08
2	0	0	1	0	50.8749	0.1547	0.154501	0.000139482	3	7.84993e-06	2.15501e-08
2	0	0	1	0	50.9749	0.1497	0.149446	0.000135951	3	7.86336e-06	2.03173e-08
2	0	0	0	0	51.0751	0.1447	0.144504	0.000130853	3	7.87647e-06	1.89088e-08
2	0	0	0	0	51.1751	0.139699	0.139449	0.000124607	3	7.88907e-06	1.73764e-08
2	0	0	0	0	51.2751	0.134699	0.134449	0.000120807	3	7.90114e-06	1.62424e-08
2	0	0	0	0	51.3751	0.129699	0.129485	0.000113963	3	7.91265e-06	1.47565e-08
2	0	0	0	0	51.4751	0.124699	0.124477	0.000106816	3	7.92347e-06	1.32961e-08
2	0	0	0	0	51.5751	0.119699	0.119464	9.92486e-05	3	7.93355e-06	1.18566e-08
2	0	0	0	0	51.6751	0.114698	0.114503	8.92843e-05	3	7.94272e-06	1.02233e-08
2	0	0	0	0	51.7751	0.109698	0.109481	7.77957e-05	3	7.95081e-06	8.51713e-09
2	0	0	0	0	51.8751	0.104698	0.104488	6.31116e-05	3	7.95759e-06	6.59438e-09
2	0	0	0	0	51.9751	0.0996979	0.0994711	4.37678e-05	3	7.96278e-06	4.35363e-09
2	0	0	0	0	52.0751	0.0946977	0.0944842	2.36256e-05	3	7.96602e-06	2.23225e-09
2	0	0	0	0	52.1751	0.0896975	0.0894497	-4.12446e-06	3	7.9668e-06	-3.68932e-10
2	0	0	0	0	52.2751	0.0846973	0.0844692	-3.83484e-05	3	7.96454e-06	-3.23926e-09
2	0	0	0	0	52.3751	0.0796971	0.0794782	-8.01819e-05	3	7.95855e-06	-6.37271e-09
2	0	0	0	0	52.4751	0.0746969	0.0744723	-0.000129154	3	7.948e-06	-9.61835e-09
2	0	0	0	0	52.5751	0.0696967	0.0694854	-0.000187496	3	7.93203e-06	-1.30282e-08
2	0	0	0	0	52.6751	0.0646964	0.0645188	-0.000255174	3	7.90973e-06	-1.64635e-08
2	0	0	0	0	52.7751	0.0596963	0.0595012	-0.000331162	3	7.88019e-06	-1.97045e-08
2	0	0	0	0	52.8751	0.0546961	0.054491	-0.000413043	3	7.84281e-06	-2.25072e-08
2	0	0	0	0	52.9751	0.0496959	0.0494745	-0.000494019	3	7.79716e-06	-2.44413e-08
2	0	0	0	0	53.0751	0.0446957	0.0444156	-0.000572697	3	7.74355e-06	-2.54367e-08
2	0	0	0	0	53.1751	0.0396955	0.0394945	-0.000639782	3	7.68263e-06	-2.52679e-08
2	0	0	0	0	53.2751	0.0346953	0.0344992	-0.000692712	3	7.61559e-06	-2.3898e-08
2	0	0	0	0	53.3751	0.0296951	0.029506	-0.000727909	3	7.54421e-06	-2.14777e-08
2	0	0	0	0	53.4751	0.0246949	0.0244874	-0.000745361	3	7.4703e-06	-1.8252e-08
2	0	0	0	0	53.5751	0.0196946	0.0194889	-0.000743619	3	7.39565e-06	-1.44923e-08
2	0	0	0	0	53.6751	0.0146944	0.0144979	-0.00072568	3	7.32198e-06	-1.05208e-08
2	0	0	0	0	53.7751	0.00969425	0.00947922	-0.000701063	3	7.25036e-06	-6.64553e-09
2	0	0	0	0	53.8751	0.00469405	0.00452632	-0.000669121	3	7.18166e-06	-3.02866e-09
2	0	0	0	0	53.9751	-0.000306156	-0.000576054	-0.000637248	3	7.11608e-06	3.67089e-10
2	0	0	0	0	54.0751	-0.00530636	-0.0055809	-0.00060422	3	7.05368e-06	3.3721e-09
2	0	0	0	0	54.1751	-0.0103066	-0.0105412	-0.000571791	3	6.99455e-06	6.02738e-09
2	0	0	0	0	54.2751	-0.0153068	-0.0155206	-0.000545873	3	6.93844e-06	8.47229e-09
2	0	0	0	0	54.3751	-0.020307	-0.0205605	-0.000518495	3	6.88509e-06	1.06605e-08
2	0	0	0	0	54.4751	-0.0253072	-0.0255165	-0.000496112	3	6.83423e-06	1.26591e-08
2	0	0	0	0	54.5751	-0.0303074	-0.0305235	-0.000473602	3	6.78559e-06	1.4456e-08
2	0	0	0	0	54.6751	-0.0353076	-0.0355305	-0.000455419	3	6.73895e-06	1.61813e-08
2	0	0	0	0	54.7751	-0.0403078	-0.0405428	-0.000439025	3	6.69409e-06	1.77993e-08
2	0	0	0	0	54.8751	-0.045308	-0.0455444	-0.000422834	3	6.65084e-06	1.92578e-08
2	0	0	0	0	54.9751	-0.0503082	-0.0505811	-0.000409737	3	6.609e-06	2.07249e-08
2	0	0	0	0	55.0751	-0.0553084	-0.0555382	-0.000397941	3	6.56843e-06	2.21009e-08
2	0	0	0	0	55.1751	-0.0603086	-0.0605728	-0.000387653	3	6.52905e-06	2.34812e-08
2	0	0	0	0	55.2751	-0.0653088	-0.065567	-0.000376053	3	6.49075e-06	2.46567e-08
2	0	0	0	0	55.3751	-0.070309	-0.0706079	-0.00036567	3	6.45341e-06	2.58192e-08
2	0	0	0	0	55.4751	-0.0753092	-0.0755354	-0.000358239	3	6.41698e-06	2.70597e-08
2	0	0	0	0	55.5751	-0.0803094	-0.0805519	-0.000350644	3	6.38136e-06	2.8245e-08
2	0	0	0	0	55.6751	-0.0853096	-0.0855557	-0.000341723	3	6.34652e-06	2.92364e-08
2	0	0	0	0	55.7751	-0.0903098	-0.0905626	-0.000336919	3	6.31238e-06	3.05123e-08
2	0	0	0	0	55.8751	-0.09531	-0.0955611	-0.000330812	3	6.27891e-06	3.16128e-08
2	0	0	1	0	55.9753	-0.10031	-0.100539	-0.000322411	3	6.24599e-06	3.24151e-08
2	0	0	1	0	56.0753	-0.10531	-0.105575	-0.000317605	3	6.21369e-06	3.35312e-08
2	0	0	1	0	56.1753	-0.110311	-0.110545	-0.000313588	3	6.18194e-06	3.46656e-08
2	0	0	1	0	56.2753	-0.115311	-0.115565	-0.000307906	3	6.15069e-06	3.5583e-08
2	0	0	1	0	56.3753	-0.120311	-0.12054	-0.00030406	3	6.1199e-06	3.66514e-08
2	0	0	1	0	56.4753	-0.125311	-0.125573	-0.000299162	3	6.08955e-06	3.75668e-08
2	0	0	1	0	56.5753	-0.130311	-0.130558	-0.000295343	3	6.05961e-06	3.85594e-08
2	0	0	1	0	56.6753	-0.135312	-0.135552	-0.00029193	3	6.03007e-06	3.95718e-08
2	0	0	1	0	56.7753	-0.140312	-0.140566	-0.000289397	3	6.00088e-06	4.06793e-08
2	0	0	1	0	56.8753	-0.145312	-0.145544	-0.000284492	3	5.97201e-06	4.14061e-08
2	0	0	1	0	56.9753	-0.150312	-0.150521	-0.000281175	3	5.94345e-06	4.23228e-08
2	0	0	1	0	57.0753	-0.155312	-0.155574	-0.00028085	3	5.91515e-06	4.36929e-08
2	0	0	1	0	57.1753	-0.160313	-0.160601	-0.000276619	3	5.88713e-06	4.44253e-08
2	0	0	1	0	57.2753	-0.165313	-0.165625	-0.000273793	3	5.85934e-06	4.53469e-08
2	0	0	1	0	57.3753	-0.170313	-0.170549	-0.000270979	3	5.83172e-06	4.62152e-08
2	0	0	1	0	57.4753	-0.175313	-0.175559	-0.000272108	3	5.8043e-06	4.77711e-08
2	0	0	1	0	57.5753	-0.180313	-0.180555	-0.00027276	3	5.77702e-06	4.9248e-08
2	0	0	1	0	57.6753	-0.185314	-0.185569	-0.000269941	3	5.74985e-06	5.00926e-08
2	0	0	1	0	57.7753	-0.190314	-0.190538	-0.000268296	3	5.72276e-06	5.11205e-08
2	0	0	1	0	57.8753	-0.195314	-0.195607	-0.000267687	3	5.69571e-06	5.23614e-08
2	1	0	1	1	57.9692	-0.199989	-0.200276	-0.000249251	3	5.67038e-06	4.99189e-08
2	1	0	0	1	58.0647	-0.195214	-0.195409	-0.000122125	3	5.65761e-06	2.38643e-08
2	1	0	0	1	58.1647	-0.190214	-0.190436	-0.000105078	3	5.6466e-06	2.00105e-08
2	1	0	0	1	58.2647	-0.185214	-0.1854	-9.3921e-05	3	5.63694e-06	1.7413e-08
2	1	0	0	1	58.3647	-0.180213	-0.180398	-8.39408e-05	3	5.62832e-06	1.51427e-08
2	1	0	0	1	58.4647	-0.175213	-0.1754	-7.70395e-05	3	5.62057e-06	1.35127e-08
2	1	0	0	1	58.5647	-0.170213	-0.17038	-6.91526e-05	3	5.61353e-06	1.17822e-08
2	1	0	0	1	58.6647	-0.165213	-0.165425	-6.39364e-05	3	5.60716e-06	1.05767e-08
2	1	0	0	1	58.7647	-0.160213	-0.160467	-5.82716e-05	3	5.60131e-06	9.35068e-09
2	1	0	0	1	58.8647	-0.155212	-0.155441	-5.37284e-05	3	5.59601e-06	8.35161e-09
2	1	0	0	1	58.9647	-0.150212	-0.150395	-4.89203e-05	3	5.59124e-06	7.35736e-09
2	1	0	0	1	59.0647	-0.145212	-0.145392	-4.45449e-05	3	5.5869e-06	6.47648e-09
2	1	0	0	1	59.1647	-0.140212	-0.140386	-3.93959e-05	3	5.58297e-06	5.53064e-09
2	1	0	0	1	59.2647	-0.135212	-0.135385	-3.52696e-05	3	5.57942e-06	4.77496e-09
2	1	0	0	1	59.3647	-0.130211	-0.130407	-3.38441e-05	3	5.57625e-06	4.41352e-09
2	1	0	0	1	59.4647	-0.125211	-0.125442	-3.01293e-05	3	5.57342e-06	3.77948e-09
2	1	0	0	1	59.5647	-0.120211	-0.120436	-2.62274e-05	3	5.57092e-06	3.15872e-09
2	1	0	0	1	59.6647	-0.115211	-0.115384	-2.22159e-05	3	5.56874e-06	2.56337e-09
2	1	0	0	1	59.7647	-0.110211	-0.110402	-1.99284e-05	3	5.56685e-06	2.20013e-09
2	1	0	0	1	59.8647	-0.10521	-0.105444	-1.79995e-05	3	5.56525e-06	1.89793e-09
2	1	0	0	1	59.9647	-0.10021	-0.100401	-1.37231e-05	3	5.56391e-06	1.3778e-09
2	1	0	1	1	60.0649	-0.09521	-0.0954403	-1.1909e-05	3	5.56282e-06	1.13659e-09
2	1	0	1	1	60.1649	-0.0902098	-0.0903676	-1.15875e-05	3	5.56198e-06	1.04713e-09
2	1	0	1	1	60.2649	-0.0852096	-0.0853532	-8.68529e-06	3	5.56136e-06	7.41317e-10
2	1	0	1	1	60.3649	-0.0802094	-0.080448	-5.3627e-06	3	5.5609e-06	4.31419e-10
2	1	0	1	1	60.4644	-0.0752342	-0.0754674	-3.26378e-06	3	5.56075e-06	2.46309e-10
2	1	0	0	1	60.469	-0.0749842	-0.0751537	9.82191e-07	3	5.56075e-06	-7.38153e-11