File: AutoAnalysis Examples/EC/C000A-5ppb-A_C01.mpt
EC-Lab ASCII FILE
Nb header lines : 59

Cyclic Voltammetry

Run on channel : 1 (SN 22398)
User :
CE vs. WE compliance from -10 V to 10 V
Electrode connection : standard
Ewe ctrl range : min = -1.00 V, max = 1.00 V
Safety Limits :
	Ewe min = -2.00 V
	Ewe max = 2.00 V
	|I| = 50.000 mA
	for t > 10 ms
Acquisition started on : 11/21/2018 10:39:16
Technique started on : 11/21/2018 10:39:16
Saved on :
	File : C000A-5ppb-A_C01.mpr
	Directory : \\ECCOMPUTER\Users\Lab User\Google Drive\Electrochemical Data\EC-Lab\Data\FREDsense\Tim\2018.11.21 - EC comparison to High Throughput\
	Host : 172.16.1.30
Device : SP-50 (SN 0301030103010301)
Address : USB
EC-Lab for windows v11.02 (software)
Internet server v11.02 (firmware)
Command interpretor v11.02 (firmware)
Electrode material : Au/Pd
Initial state :
Electrolyte : NaCl (0.2M)
Comments : Fe(CN)63-/Fe(CN)64- 5.10-3 M
Reference electrode : SCE Saturated Calomel Electrode (0.241 V)
Electrode surface area : 0.001 cm²
Characteristic mass : 0.001 g
Equivalent Weight : 0.000 g/eq.
Density : 0.000 g/cm3
Cycle Definition : Charge/Discharge alternance
Ei (V)              -0.100
vs.                 Ref
dE/dt               50.000
dE/dt unit          mV/s
E1 (V)              0.300
vs.                 Ref
Step percent        50
N                   10
E range min (V)     -1.000
E range max (V)     1.000
I Range             Auto
I Range min         Unset
I Range max         Unset
I Range init        Unset
Bandwidth           5
E2 (V)              -0.200
vs.                 Ref
nc cycles           2
Reverse Scan        1
Ef (V)              0.000
vs.                 Eoc

mode	ox/red	error	control changes	counter inc.	time/s	control/V	Ewe/V	<I>/mA	cycle number	(Q-Qo)/C	P/W
2	1	0	1	0	0.000000000000000E+000	-0.0985036	-0.0985623	-7.30541e-05	1	0.0000000E+000	7.20038e-09
2	1	0	0	0	0.111	-0.0929534	-0.0932102	-5.34752e-06	1	2.5641e-09	4.98444e-10
2	1	0	1	0	0.2265	-0.0871782	-0.0874554	3.61988e-05	1	7.70155e-09	-3.16578e-09
2	1	0	1	0	0.3265	-0.082178	-0.0823944	4.12437e-05	1	1.19826e-08	-3.39825e-09
2	1	0	1	0	0.4265	-0.0771778	-0.0773779	4.49919e-05	1	1.67046e-08	-3.48138e-09
2	1	0	1	0	0.5265	-0.0721777	-0.0723688	4.88127e-05	1	2.1751e-08	-3.53251e-09
2	1	0	1	0	0.6265	-0.0671775	-0.0674011	5.12415e-05	1	2.70424e-08	-3.45373e-09
2	1	0	1	0	0.7265	-0.0621773	-0.0623336	5.28188e-05	1	3.25676e-08	-3.29239e-09
2	1	0	1	0	0.8265	-0.0571771	-0.057439	5.44174e-05	1	3.82866e-08	-3.12569e-09
2	1	0	1	0	0.9265	-0.0521769	-0.0524236	5.94676e-05	1	4.42197e-08	-3.1175e-09
2	1	0	1	0	1.0265	-0.0471768	-0.0474071	5.94623e-05	1	5.03428e-08	-2.81893e-09
2	1	0	1	0	1.1265	-0.0421766	-0.0423906	6.05115e-05	1	5.66611e-08	-2.56512e-09
2	1	0	1	0	1.2265	-0.0371764	-0.0374218	6.30463e-05	1	6.31991e-08	-2.3593e-09
2	1	0	1	0	1.3265	-0.0321762	-0.0323819	6.46025e-05	1	6.99607e-08	-2.09195e-09
2	1	0	1	0	1.4265	-0.027176	-0.0273941	6.84338e-05	1	7.69873e-08	-1.87468e-09
2	1	0	1	0	1.5265	-0.0221758	-0.0224518	7.10569e-05	1	8.43263e-08	-1.59535e-09
2	1	0	1	0	1.6265	-0.0171757	-0.0174384	7.5653e-05	1	9.20354e-08	-1.31927e-09
2	1	0	1	0	1.7265	-0.0121755	-0.0124166	8.11536e-05	1	1.00199e-07	-1.00765e-09
2	1	0	1	0	1.8265	-0.00717529	-0.00736618	8.80178e-05	1	1.0893e-07	-6.48355e-10
2	1	0	1	0	1.9265	-0.00217511	-0.00239525	9.52229e-05	1	1.18398e-07	-2.28083e-10
2	1	0	1	0	2.0265	0.00282507	0.00264564	0.0001055	1	1.2885e-07	2.79115e-10
2	1	0	1	0	2.1265	0.00782525	0.00768123	0.000120023	1	1.40495e-07	9.21926e-10
2	1	0	1	0	2.2265	0.0128254	0.0126373	0.000138754	1	1.53709e-07	1.75348e-09
2	1	0	1	0	2.3265	0.0178256	0.0176687	0.000161198	1	1.68959e-07	2.84815e-09
2	1	0	1	0	2.4265	0.0228258	0.0225908	0.000189697	1	1.86827e-07	4.28541e-09
2	1	0	1	0	2.5265	0.027826	0.027655	0.000228006	1	2.08036e-07	6.30553e-09
2	1	0	1	0	2.6265	0.0328262	0.0326355	0.000273511	1	2.33317e-07	8.92615e-09
2	1	0	1	0	2.7265	0.0378263	0.037635	0.000327145	1	2.63548e-07	1.23121e-08
2	1	0	1	0	2.8265	0.0428265	0.0426325	0.000388344	1	2.99591e-07	1.65561e-08
2	1	0	1	0	2.9265	0.0478267	0.047614	0.000457656	1	3.42209e-07	2.17908e-08
2	1	0	1	0	3.0265	0.0528269	0.0526591	0.000532342	1	3.92062e-07	2.80327e-08
2	1	0	1	0	3.1265	0.057827	0.0576756	0.000605271	1	4.4931e-07	3.49094e-08
2	1	0	1	0	3.2265	0.0628272	0.0626709	0.000677182	1	5.1383e-07	4.24396e-08
2	1	0	1	0	3.3265	0.0678274	0.0676811	0.000741844	1	5.85112e-07	5.02088e-08
2	1	0	1	0	3.4265	0.0728276	0.0726393	0.000790436	1	6.62178e-07	5.74167e-08
2	1	0	1	0	3.5265	0.0778278	0.0776993	0.000832504	1	7.43831e-07	6.4685e-08
2	1	0	1	0	3.6265	0.0828279	0.0826765	0.000856533	1	8.28701e-07	7.08151e-08
2	1	0	1	0	3.7265	0.0878281	0.0876538	0.000871019	1	9.15471e-07	7.63481e-08
2	1	0	1	0	3.8265	0.0928283	0.0926746	0.000870489	1	1.00293e-06	8.06722e-08
2	1	0	1	0	3.9265	0.0978285	0.0977081	0.000863188	1	1.09007e-06	8.43405e-08
2	1	0	1	0	4.0265	0.102829	0.102698	0.000849894	1	1.17614e-06	8.72825e-08
2	1	0	1	0	4.1265	0.107829	0.107654	0.000832331	1	1.26062e-06	8.96039e-08
2	1	0	1	0	4.2265	0.112829	0.112647	0.000812473	1	1.34319e-06	9.15229e-08
2	1	0	1	0	4.3265	0.117829	0.117622	0.00079164	1	1.4237e-06	9.31147e-08
2	1	0	1	0	4.4265	0.122829	0.122694	0.000768211	1	1.50206e-06	9.4255e-08
2	1	0	1	0	4.5265	0.12783	0.127715	0.000748609	1	1.57833e-06	9.56085e-08
2	1	0	1	0	4.6265	0.13283	0.132696	0.000729677	1	1.65258e-06	9.68255e-08
2	1	0	1	0	4.7265	0.13783	0.137667	0.000710768	1	1.72492e-06	9.78495e-08
2	1	0	1	0	4.8265	0.14283	0.142694	0.000693353	1	1.79551e-06	9.89376e-08
2	1	0	1	0	4.9265	0.14783	0.147681	0.000678356	1	1.86444e-06	1.0018e-07
2	1	0	1	0	5.0265	0.15283	0.1527	0.000667601	1	1.9319e-06	1.01943e-07
2	1	0	1	0	5.1265	0.157831	0.15767	0.000651182	1	1.99799e-06	1.02672e-07
2	1	0	1	0	5.2265	0.162831	0.162705	0.000639102	1	2.06283e-06	1.03985e-07
2	1	0	1	0	5.3265	0.167831	0.167745	0.0006283	1	2.12656e-06	1.05394e-07
2	1	0	1	0	5.4265	0.172831	0.172675	0.000617702	1	2.18924e-06	1.06661e-07
2	1	0	0	0	5.5267	0.177831	0.177694	0.000608573	1	2.25111e-06	1.0814e-07
2	1	0	0	0	5.6267	0.182832	0.182736	0.000600942	1	2.31202e-06	1.09814e-07
2	1	0	0	0	5.7267	0.187832	0.187659	0.000593947	1	2.37219e-06	1.11459e-07
2	1	0	0	0	5.8267	0.192832	0.192669	0.000587952	1	2.43168e-06	1.1328e-07
2	1	0	0	0	5.9267	0.197832	0.197699	0.000582515	1	2.49057e-06	1.15163e-07
2	1	0	0	0	6.0267	0.202832	0.202677	0.00057613	1	2.5489e-06	1.16768e-07
2	1	0	0	0	6.1267	0.207832	0.207725	0.000573314	1	2.60678e-06	1.19092e-07
2	1	0	0	0	6.2267	0.212833	0.212717	0.000568753	1	2.66425e-06	1.20984e-07
2	1	0	0	0	6.3267	0.217833	0.217721	0.000566637	1	2.72136e-06	1.23369e-07
2	1	0	0	0	6.4267	0.222833	0.222671	0.000562784	1	2.77819e-06	1.25316e-07
2	1	0	0	0	6.5267	0.227833	0.227666	0.000562205	1	2.83477e-06	1.27995e-07
2	1	0	0	0	6.6267	0.232833	0.232727	0.000558755	1	2.89114e-06	1.30037e-07
2	1	0	0	0	6.7267	0.237834	0.237747	0.000558105	1	2.94742e-06	1.32688e-07
2	1	0	0	0	6.8267	0.242834	0.242684	0.000557037	1	3.00367e-06	1.35184e-07
2	1	0	0	0	6.9267	0.247834	0.24762	0.000556014	1	3.05967e-06	1.3768e-07
2	1	0	0	0	7.0267	0.252834	0.252663	0.000554585	1	3.11546e-06	1.40123e-07
2	1	0	0	0	7.1267	0.257834	0.257733	0.0005543	1	3.17124e-06	1.42862e-07
2	1	0	0	0	7.2267	0.262834	0.262724	0.000552513	1	3.22695e-06	1.45159e-07
2	1	0	0	0	7.3267	0.267835	0.267709	0.000554327	1	3.28269e-06	1.48398e-07
2	1	0	0	0	7.4267	0.272835	0.272661	0.000555639	1	3.33854e-06	1.51501e-07
2	1	0	0	0	7.5267	0.277835	0.277711	0.000555708	1	3.39444e-06	1.54326e-07
2	1	0	0	0	7.6267	0.282835	0.282719	0.000555618	1	3.45041e-06	1.57084e-07
2	1	0	0	0	7.7267	0.287835	0.287685	0.000555835	1	3.50642e-06	1.59905e-07
2	1	0	0	0	7.8267	0.292836	0.292724	0.000556157	1	3.56245e-06	1.628e-07
2	1	0	0	0	7.9267	0.297836	0.297697	0.00055843	1	3.61854e-06	1.66243e-07
2	0	0	1	0	8.0061	0.298186	0.29799	0.000447882	1	3.65949e-06	1.33465e-07
2	0	0	1	0	8.1061	0.293186	0.292977	0.000403516	1	3.70164e-06	1.18221e-07
2	0	0	1	0	8.2061	0.288185	0.28808	0.000376477	1	3.74033e-06	1.08456e-07
2	0	0	1	0	8.3061	0.283185	0.283033	0.000353353	1	3.77663e-06	1.00011e-07
2	0	0	1	0	8.4061	0.278185	0.277992	0.000334644	1	3.81072e-06	9.30284e-08
2	0	0	1	0	8.5061	0.273185	0.273064	0.000316994	1	3.84294e-06	8.65595e-08
2	0	0	1	0	8.6061	0.268185	0.268046	0.00030364	1	3.87366e-06	8.13895e-08
2	0	0	1	0	8.7061	0.263184	0.263052	0.000291318	1	3.90312e-06	7.66316e-08
2	0	0	1	0	8.8061	0.258184	0.258042	0.000281193	1	3.93151e-06	7.25594e-08
2	0	0	1	0	8.9061	0.253184	0.252969	0.000273714	1	3.95893e-06	6.92411e-08
2	0	0	1	0	9.0061	0.248184	0.248	0.000263454	1	3.98553e-06	6.53368e-08
2	0	0	1	0	9.1061	0.243184	0.243028	0.000256562	1	4.01135e-06	6.23518e-08
2	0	0	1	0	9.2061	0.238184	0.238013	0.000249293	1	4.03644e-06	5.9335e-08
2	0	0	1	0	9.3061	0.233183	0.23302	0.000242721	1	4.06088e-06	5.65586e-08
2	0	0	1	0	9.4061	0.228183	0.227994	0.000237603	1	4.08471e-06	5.4172e-08
2	0	0	1	0	9.5061	0.223183	0.223007	0.00023146	1	4.10794e-06	5.16171e-08
2	0	0	1	0	9.6061	0.218183	0.218067	0.000226184	1	4.13064e-06	4.93231e-08
2	0	0	1	0	9.7061	0.213183	0.213001	0.000221983	1	4.15279e-06	4.72827e-08
2	0	0	1	0	9.8061	0.208182	0.207992	0.000215499	1	4.17445e-06	4.4822e-08
2	0	0	1	0	9.9061	0.203182	0.202999	0.000212588	1	4.19564e-06	4.31551e-08
2	0	0	1	0	10.0061	0.198182	0.198065	0.000205222	1	4.21635e-06	4.06473e-08
2	0	0	1	0	10.1061	0.193182	0.193018	0.000202683	1	4.23657e-06	3.91215e-08
2	0	0	1	0	10.2061	0.188182	0.187984	0.000198123	1	4.25636e-06	3.7244e-08
2	0	0	1	0	10.3061	0.183182	0.182924	0.000192912	1	4.27573e-06	3.52883e-08
2	0	0	1	0	10.4061	0.178181	0.177965	0.000187298	1	4.29463e-06	3.33325e-08
2	0	0	0	0	10.5063	0.173181	0.17301	0.000184843	1	4.31311e-06	3.19797e-08
2	0	0	0	0	10.6063	0.168181	0.16798	0.000179415	1	4.3311e-06	3.01381e-08
2	0	0	0	0	10.7063	0.163181	0.162962	0.000176036	1	4.34861e-06	2.86872e-08
2	0	0	0	0	10.8063	0.158181	0.158001	0.000169616	1	4.3657e-06	2.67996e-08
2	0	0	0	0	10.9063	0.15318	0.153035	0.00016549	1	4.38225e-06	2.53258e-08
2	0	0	0	0	11.0063	0.14818	0.147964	0.000160581	1	4.39825e-06	2.37602e-08
2	0	0	0	0	11.1063	0.14318	0.142948	0.000154802	1	4.41374e-06	2.21286e-08
2	0	0	0	0	11.2063	0.13818	0.137964	0.000147088	1	4.42863e-06	2.02928e-08
2	0	0	0	0	11.3063	0.13318	0.132948	0.000142191	1	4.44287e-06	1.89041e-08
2	0	0	0	0	11.4063	0.12818	0.127985	0.000134133	1	4.45641e-06	1.7167e-08
2	0	0	0	0	11.5063	0.123179	0.123007	0.000125165	1	4.46914e-06	1.53962e-08
2	0	0	0	0	11.6063	0.118179	0.117944	0.000114685	1	4.48096e-06	1.35264e-08
2	0	0	0	0	11.7063	0.113179	0.112971	0.000104383	1	4.49173e-06	1.17923e-08
2	0	0	0	0	11.8063	0.108179	0.10798	9.18014e-05	1	4.50127e-06	9.91272e-09
2	0	0	0	0	11.9063	0.103179	0.103002	7.46144e-05	1	4.50939e-06	7.68541e-09
2	0	0	0	0	12.0063	0.0981785	0.0980361	5.65618e-05	1	4.51576e-06	5.5451e-09
2	0	0	0	0	12.1063	0.0931783	0.0929973	3.41993e-05	1	4.52006e-06	3.18044e-09
2	0	0	0	0	12.2063	0.0881781	0.0879903	5.78679e-06	1	4.52183e-06	5.09181e-10
2	0	0	0	0	12.3063	0.083178	0.0830025	-2.76246e-05	1	4.52055e-06	-2.29291e-09
2	0	0	0	0	12.4063	0.0781778	0.0779966	-6.88328e-05	1	4.51559e-06	-5.36872e-09
2	0	0	0	0	12.5063	0.0731776	0.0729885	-0.000116368	1	4.50623e-06	-8.49355e-09
2	0	0	0	0	12.6063	0.0681774	0.0680134	-0.000170848	1	4.49173e-06	-1.16199e-08
2	0	0	0	0	12.7063	0.0631772	0.0629969	-0.000234302	1	4.47133e-06	-1.47603e-08
2	0	0	0	0	12.8063	0.0581771	0.0579507	-0.000302868	1	4.44434e-06	-1.75514e-08
2	0	0	0	0	12.9063	0.0531769	0.0530487	-0.000374331	1	4.4103e-06	-1.98578e-08
2	0	0	0	0	13.0063	0.0481767	0.0479654	-0.000447481	1	4.36897e-06	-2.14636e-08
2	0	0	0	0	13.1063	0.0431765	0.0429913	-0.000513899	1	4.32068e-06	-2.20932e-08
2	0	0	0	0	13.2063	0.0381763	0.0379981	-0.000572132	1	4.26614e-06	-2.17399e-08
2	0	0	0	0	13.3063	0.0331762	0.0330409	-0.000616198	1	4.20644e-06	-2.03598e-08
2	0	0	0	0	13.4063	0.028176	0.0279566	-0.000645035	1	4.14306e-06	-1.8033e-08
2	0	0	0	0	13.5063	0.0231758	0.0229825	-0.000658857	1	4.0775e-06	-1.51422e-08
2	0	0	0	0	13.6063	0.0181756	0.0179575	-0.000659473	1	4.01131e-06	-1.18425e-08
2	0	0	0	0	13.7063	0.0131754	0.0129855	-0.00064713	1	3.94577e-06	-8.4033e-09
2	0	0	0	0	13.8063	0.00817526	0.00790644	-0.000626668	1	3.88184e-06	-4.95471e-09
2	0	0	0	0	13.9063	0.00317508	0.00297156	-0.000601062	1	3.82018e-06	-1.78609e-09
2	0	0	0	0	14.0063	-0.0018251	-0.00206297	-0.000576202	1	3.76113e-06	1.18869e-09
2	0	0	0	0	14.1063	-0.00682528	-0.00700846	-0.000546339	1	3.70492e-06	3.82899e-09
2	0	0	0	0	14.2063	-0.0118255	-0.0120303	-0.000518432	1	3.6515e-06	6.23687e-09
2	0	0	0	0	14.3063	-0.0168256	-0.0170553	-0.00049464	1	3.60074e-06	8.43622e-09
2	0	0	0	0	14.4063	-0.0218258	-0.0220993	-0.000470933	1	3.55248e-06	1.04073e-08
2	0	0	0	0	14.5063	-0.026826	-0.0270215	-0.00044628	1	3.50651e-06	1.20591e-08
2	0	0	0	0	14.6063	-0.0318262	-0.0320433	-0.000427235	1	3.46264e-06	1.369e-08
2	0	0	0	0	14.7063	-0.0368264	-0.0370121	-0.00041012	1	3.42066e-06	1.51794e-08
2	0	0	0	0	14.8063	-0.0418266	-0.0420223	-0.00039486	1	3.38034e-06	1.65929e-08
2	0	0	0	0	14.9063	-0.0468267	-0.0470801	-0.000379425	1	3.34158e-06	1.78634e-08
2	0	0	0	0	15.0063	-0.0518269	-0.0520277	-0.000365443	1	3.30419e-06	1.90131e-08
2	0	0	0	0	15.1063	-0.0568271	-0.0570813	-0.000354816	1	3.26801e-06	2.02534e-08
2	0	0	0	0	15.2063	-0.0618273	-0.0620512	-0.000342721	1	3.23299e-06	2.12663e-08
2	0	0	0	0	15.3063	-0.0668275	-0.0670115	-0.000332296	1	3.19898e-06	2.22677e-08
2	0	0	0	0	15.4063	-0.0718277	-0.0720482	-0.000324494	1	3.16592e-06	2.33792e-08
2	0	0	0	0	15.5063	-0.0768278	-0.0770573	-0.000316676	1	3.1337e-06	2.44022e-08
2	0	0	0	0	15.6063	-0.081828	-0.0819996	-0.000308925	1	3.10227e-06	2.53317e-08
2	0	0	0	0	15.7063	-0.0868282	-0.086997	-0.000301114	1	3.07156e-06	2.6196e-08
2	0	0	0	0	15.8063	-0.0918284	-0.0920421	-0.000294866	1	3.04151e-06	2.71401e-08
2	0	0	0	0	15.9063	-0.0968286	-0.0970851	-0.000289964	1	3.01208e-06	2.81512e-08
2	0	0	1	0	16.0065	-0.101829	-0.102041	-0.000283508	1	2.98317e-06	2.89295e-08
2	0	0	1	0	16.1065	-0.106829	-0.106971	-0.000279039	1	2.95483e-06	2.98491e-08
2	0	0	1	0	16.2065	-0.111829	-0.112034	-0.000274381	1	2.92698e-06	3.074e-08
2	0	0	1	0	16.3065	-0.116829	-0.116993	-0.00027043	1	2.89959e-06	3.16385e-08
2	0	0	1	0	16.4065	-0.121829	-0.122	-0.000265184	1	2.87263e-06	3.23525e-08
2	0	0	1	0	16.5065	-0.12683	-0.127018	-0.000262301	1	2.84606e-06	3.33169e-08
2	0	0	1	0	16.6065	-0.13183	-0.132024	-0.000258591	1	2.81985e-06	3.41402e-08
2	0	0	1	0	16.7065	-0.13683	-0.136995	-0.000255926	1	2.79399e-06	3.50605e-08
2	0	0	1	0	16.8065	-0.14183	-0.142063	-0.000253147	1	2.76846e-06	3.59629e-08
2	0	0	1	0	16.9065	-0.14683	-0.147066	-0.000249159	1	2.74322e-06	3.66427e-08
2	0	0	1	0	17.0065	-0.151831	-0.152054	-0.000245589	1	2.71825e-06	3.73427e-08
2	0	0	1	0	17.1065	-0.156831	-0.157051	-0.000245782	1	2.69349e-06	3.86003e-08
2	0	0	1	0	17.2065	-0.161831	-0.16203	-0.000242542	1	2.66898e-06	3.92992e-08
2	0	0	1	0	17.3065	-0.166831	-0.167034	-0.00024067	1	2.64466e-06	4.02001e-08
2	0	0	1	0	17.4065	-0.171831	-0.172054	-0.000238442	1	2.62052e-06	4.10249e-08
2	0	0	1	0	17.5065	-0.176831	-0.177007	-0.00023772	1	2.59652e-06	4.2078e-08
2	0	0	1	0	17.6065	-0.181832	-0.182045	-0.000237207	1	2.57264e-06	4.31823e-08
2	0	0	1	0	17.7065	-0.186832	-0.187072	-0.000234803	1	2.54886e-06	4.39251e-08
2	0	0	1	0	17.8065	-0.191832	-0.192008	-0.000235727	1	2.52517e-06	4.52614e-08
2	0	0	1	0	17.9065	-0.196832	-0.197059	-0.000234222	1	2.50152e-06	4.61556e-08
2	1	0	0	1	17.9959	-0.198732	-0.198955	-0.000131056	1	2.48296e-06	2.60742e-08
2	1	0	0	1	18.0959	-0.193732	-0.193954	-0.000106985	1	2.47156e-06	2.07502e-08
2	1	0	0	1	18.1959	-0.188732	-0.188839	-9.36154e-05	1	2.46195e-06	1.76782e-08
2	1	0	0	1	18.2959	-0.183732	-0.183862	-8.39037e-05	1	2.45352e-06	1.54267e-08
2	1	0	0	1	18.3959	-0.178732	-0.178927	-7.45065e-05	1	2.446e-06	1.33312e-08
2	1	0	0	1	18.4959	-0.173731	-0.173915	-6.76759e-05	1	2.43925e-06	1.17698e-08
2	1	0	0	1	18.5959	-0.168731	-0.168913	-6.14935e-05	1	2.43315e-06	1.0387e-08
2	1	0	0	1	18.6959	-0.163731	-0.163852	-5.63692e-05	1	2.42765e-06	9.23619e-09
2	1	0	0	1	18.7959	-0.158731	-0.15891	-5.1372e-05	1	2.42266e-06	8.1635e-09
2	1	0	0	1	18.8959	-0.153731	-0.153825	-4.63819e-05	1	2.41816e-06	7.13471e-09
2	1	0	0	1	18.9959	-0.14873	-0.148903	-4.19624e-05	1	2.41407e-06	6.24833e-09
2	1	0	0	1	19.0959	-0.14373	-0.143934	-3.77407e-05	1	2.41038e-06	5.43218e-09
2	1	0	0	1	19.1959	-0.13873	-0.138843	-3.52625e-05	1	2.40706e-06	4.89597e-09
2	1	0	0	1	19.2959	-0.13373	-0.133904	-3.11079e-05	1	2.40407e-06	4.16549e-09
2	1	0	0	1	19.3959	-0.12873	-0.128874	-2.75204e-05	1	2.40141e-06	3.54666e-09
2	1	0	0	1	19.4959	-0.12373	-0.123908	-2.61567e-05	1	2.39906e-06	3.24104e-09
2	1	0	0	1	19.5959	-0.118729	-0.118902	-2.33252e-05	1	2.397e-06	2.77342e-09
2	1	0	0	1	19.6959	-0.113729	-0.113908	-1.92695e-05	1	2.39523e-06	2.19496e-09
2	1	0	0	1	19.7959	-0.108729	-0.108903	-1.65617e-05	1	2.3937e-06	1.80362e-09
2	1	0	0	1	19.8959	-0.103729	-0.103904	-1.59575e-05	1	2.39244e-06	1.65805e-09
2	1	0	0	1	19.996	-0.0987275	-0.0989218	-1.1722e-05	2	2.3914e-06	1.15956e-09
2	1	0	1	1	20.0961	-0.0937285	-0.0938846	-1.00807e-05	2	2.39058e-06	9.46427e-10
2	1	0	1	1	20.1961	-0.0887283	-0.0889201	-8.2066e-06	2	2.38999e-06	7.29731e-10
2	1	0	1	1	20.2961	-0.0837281	-0.0838866	-5.88202e-06	2	2.38961e-06	4.93423e-10
2	1	0	1	1	20.3961	-0.0787279	-0.078887	-4.57136e-06	2	2.38942e-06	3.60621e-10
2	1	0	1	1	20.4961	-0.0737277	-0.0738758	-2.43578e-06	2	2.38944e-06	1.79946e-10
2	1	0	1	1	20.5961	-0.0687275	-0.068924	-5.42208e-07	2	2.38966e-06	3.73711e-11
2	1	0	1	1	20.6961	-0.0637274	-0.0639319	1.96254e-06	2	2.39007e-06	-1.25469e-10
2	1	0	1	1	20.7961	-0.0587272	-0.0589185	3.92854e-06	2	2.39067e-06	-2.31464e-10
2	1	0	1	1	20.8961	-0.053727	-0.0539232	6.64702e-06	2	2.39145e-06	-3.58429e-10
2	1	0	1	1	20.9961	-0.0487268	-0.0488717	6.40679e-06	2	2.39247e-06	-3.13111e-10
2	1	0	1	1	21.0961	-0.0437266	-0.0438817	9.30721e-06	2	2.39368e-06	-4.08417e-10
2	1	0	1	1	21.1961	-0.0387264	-0.0388758	1.18703e-05	2	2.39511e-06	-4.61466e-10
2	1	0	1	1	21.2961	-0.0337263	-0.0339377	1.48555e-05	2	2.39679e-06	-5.04161e-10
2	1	0	1	1	21.3961	-0.0287261	-0.0289022	1.76411e-05	2	2.39875e-06	-5.09865e-10
2	1	0	1	1	21.4961	-0.0237259	-0.0238528	2.10785e-05	2	2.40103e-06	-5.0278e-10
2	1	0	1	1	21.5961	-0.0187257	-0.0188744	2.43392e-05	2	2.40368e-06	-4.59389e-10
2	1	0	1	1	21.6961	-0.0137255	-0.0139194	3.21432e-05	2	2.4068e-06	-4.47414e-10
2	1	0	1	1	21.7961	-0.00872535	-0.00888488	3.66581e-05	2	2.41049e-06	-3.25703e-10
2	1	0	1	1	21.8961	-0.00372517	-0.00390971	4.47552e-05	2	2.41489e-06	-1.7498e-10
2	1	0	1	1	21.9961	0.00127501	0.00111846	5.52494e-05	2	2.42023e-06	6.17942e-11
2	1	0	1	1	22.0961	0.0062752	0.00614027	6.87005e-05	2	2.42669e-06	4.2184e-10
2	1	0	1	1	22.1961	0.0112754	0.0111239	8.4266e-05	2	2.43459e-06	9.37368e-10
2	1	0	1	1	22.2961	0.0162756	0.016097	0.000104138	2	2.44436e-06	1.6763e-09
2	1	0	1	1	22.3961	0.0212757	0.0211103	0.000131273	2	2.45648e-06	2.77122e-09
2	1	0	1	1	22.4961	0.0262759	0.0261491	0.000164254	2	2.47153e-06	4.29508e-09
2	1	0	1	1	22.5961	0.0312761	0.0311338	0.000203325	2	2.49018e-06	6.33026e-09
2	1	0	1	1	22.6961	0.0362763	0.0361291	0.000250998	2	2.51317e-06	9.06832e-09
2	1	0	1	1	22.7961	0.0412765	0.0410873	0.000305431	2	2.54127e-06	1.25493e-08
2	1	0	1	1	22.8961	0.0462766	0.0461101	0.000366578	2	2.57516e-06	1.6903e-08
2	1	0	1	1	22.9961	0.0512768	0.0511309	0.000433237	2	2.61548e-06	2.21518e-08
2	1	0	1	1	23.0961	0.056277	0.0561029	0.000500964	2	2.66255e-06	2.81055e-08
2	1	0	1	1	23.1961	0.0612772	0.0611353	0.000569327	2	2.7164e-06	3.4806e-08
2	1	0	1	1	23.2961	0.0662774	0.0661359	0.000632204	2	2.7768e-06	4.18114e-08
2	1	0	1	1	23.3961	0.0712775	0.0711429	0.000686573	2	2.84305e-06	4.88448e-08
2	1	0	1	1	23.4961	0.0762777	0.0761138	0.000730006	2	2.91423e-06	5.55635e-08
2	1	0	1	1	23.5961	0.0812779	0.0811133	0.000760557	2	2.98919e-06	6.16913e-08
2	1	0	1	1	23.6961	0.0862781	0.0861574	0.00078018	2	3.06668e-06	6.72183e-08
2	1	0	1	1	23.7961	0.0912782	0.0911262	0.000789545	2	3.14553e-06	7.19483e-08
2	1	0	1	1	23.8961	0.0962784	0.0961353	0.00078611	2	3.2247e-06	7.55729e-08
2	1	0	1	1	23.9961	0.101279	0.101167	0.000776999	2	3.30331e-06	7.86063e-08
2	1	0	1	1	24.0961	0.106279	0.106091	0.000763103	2	3.38065e-06	8.09582e-08
2	1	0	1	1	24.1961	0.111279	0.111147	0.000744107	2	3.45636e-06	8.2705e-08
2	1	0	1	1	24.2961	0.116279	0.116154	0.000722468	2	3.5301e-06	8.39173e-08
2	1	0	1	1	24.3961	0.121279	0.121085	0.000702747	2	3.60174e-06	8.50923e-08
2	1	0	1	1	24.4961	0.12628	0.126118	0.000681711	2	3.67127e-06	8.59758e-08
2	1	0	1	1	24.5961	0.13128	0.13114	0.000660984	2	3.7387e-06	8.66811e-08
2	1	0	1	1	24.6961	0.13628	0.136125	0.000641179	2	3.80411e-06	8.72807e-08
2	1	0	1	1	24.7961	0.14128	0.141092	0.000622722	2	3.86763e-06	8.7861e-08
2	1	0	1	1	24.8961	0.14628	0.146112	0.000605365	2	3.92933e-06	8.84509e-08
2	1	0	1	1	24.9961	0.15128	0.151154	0.000589298	2	3.98939e-06	8.90745e-08
2	1	0	1	1	25.0961	0.156281	0.156162	0.000574234	2	4.04794e-06	8.96734e-08
2	1	0	1	1	25.1961	0.161281	0.16117	0.000562558	2	4.10506e-06	9.06673e-08
2	1	0	1	1	25.2961	0.166281	0.166105	0.000549256	2	4.16088e-06	9.12339e-08
2	1	0	1	1	25.3961	0.171281	0.17109	0.00053817	2	4.21551e-06	9.20756e-08
2	1	0	1	1	25.4962	0.17628	0.17618	0.000525344	2	4.26909e-06	9.2555e-08
2	1	0	0	1	25.5963	0.181281	0.181192	0.000517731	2	4.32167e-06	9.38088e-08
2	1	0	0	1	25.6963	0.186282	0.186145	0.00050901	2	4.37328e-06	9.47497e-08
2	1	0	0	1	25.7963	0.191282	0.191111	0.000501704	2	4.42405e-06	9.58811e-08
2	1	0	0	1	25.8963	0.196282	0.19616	0.000492703	2	4.47405e-06	9.66486e-08
2	1	0	0	1	25.9963	0.201282	0.201162	0.00048717	2	4.52336e-06	9.80001e-08
2	1	0	0	1	26.0963	0.206282	0.20618	0.000481532	2	4.57208e-06	9.92825e-08
2	1	0	0	1	26.1963	0.211283	0.211073	0.000475454	2	4.6202e-06	1.00355e-07
2	1	0	0	1	26.2963	0.216283	0.216141	0.000470812	2	4.66782e-06	1.01762e-07
2	1	0	0	1	26.3963	0.221283	0.221139	0.000466777	2	4.71499e-06	1.03223e-07
2	1	0	0	1	26.4963	0.226283	0.22614	0.000463478	2	4.76174e-06	1.04811e-07
2	1	0	0	1	26.5963	0.231283	0.231046	0.000459547	2	4.80814e-06	1.06176e-07
2	1	0	0	1	26.6963	0.236284	0.236093	0.00045532	2	4.85423e-06	1.07498e-07
2	1	0	0	1	26.7963	0.241284	0.241088	0.000453347	2	4.90005e-06	1.09297e-07
2	1	0	0	1	26.8963	0.246284	0.246097	0.000452305	2	4.94564e-06	1.11311e-07
2	1	0	0	1	26.9963	0.251284	0.251149	0.000450118	2	4.99107e-06	1.13047e-07
2	1	0	0	1	27.0963	0.256284	0.25615	0.000449387	2	5.03638e-06	1.15111e-07
2	1	0	0	1	27.1963	0.261284	0.261153	0.000448624	2	5.08162e-06	1.1716e-07
2	1	0	0	1	27.2963	0.266285	0.266128	0.000449422	2	5.12681e-06	1.19604e-07
2	1	0	0	1	27.3963	0.271285	0.271171	0.000448967	2	5.17205e-06	1.21747e-07
2	1	0	0	1	27.4963	0.276285	0.276096	0.000450463	2	5.21735e-06	1.24371e-07
2	1	0	0	1	27.5963	0.281285	0.281182	0.000451426	2	5.26278e-06	1.26933e-07
2	1	0	0	1	27.6963	0.286285	0.286112	0.000453946	2	5.30838e-06	1.29879e-07
2	1	0	0	1	27.7963	0.291285	0.291158	0.000456887	2	5.3542e-06	1.33026e-07
2	1	0	0	1	27.8963	0.296286	0.296083	0.000459026	2	5.4003e-06	1.3591e-07
2	0	0	0	1	27.9767	0.299686	0.29951	0.000376302	2	5.43701e-06	1.12706e-07
2	0	0	0	1	28.0767	0.294686	0.294509	0.000330334	2	5.47162e-06	9.72862e-08
2	0	0	0	1	28.1767	0.289685	0.289524	0.000305876	2	5.50315e-06	8.85586e-08
2	0	0	0	1	28.2767	0.284685	0.28452	0.000287483	2	5.53267e-06	8.17947e-08
2	0	0	0	1	28.3767	0.279685	0.279543	0.000274092	2	5.56063e-06	7.66204e-08
2	0	0	0	1	28.4767	0.274685	0.274531	0.00026246	2	5.58732e-06	7.20534e-08
2	0	0	0	1	28.5767	0.269685	0.269501	0.000252109	2	5.61293e-06	6.79435e-08
2	0	0	0	1	28.6767	0.264684	0.264496	0.000244618	2	5.6376e-06	6.47003e-08
2	0	0	0	1	28.7767	0.259684	0.259515	0.000236482	2	5.66144e-06	6.13706e-08
2	0	0	0	1	28.8767	0.254684	0.254558	0.000229043	2	5.68452e-06	5.83048e-08
2	0	0	0	1	28.9767	0.249684	0.249509	0.000222969	2	5.70695e-06	5.56326e-08
2	0	0	0	1	29.0767	0.244684	0.244484	0.000217405	2	5.72878e-06	5.31519e-08
2	0	0	0	1	29.1767	0.239684	0.239522	0.000210774	2	5.75002e-06	5.0485e-08
2	0	0	0	1	29.2767	0.234683	0.234513	0.000207016	2	5.77074e-06	4.85481e-08
2	0	0	0	1	29.3767	0.229683	0.229545	0.000200815	2	5.79097e-06	4.60959e-08
2	0	0	0	1	29.4767	0.224683	0.224519	0.000196448	2	5.81073e-06	4.41064e-08
2	0	0	0	1	29.5767	0.219683	0.219515	0.000192972	2	5.83004e-06	4.23601e-08
2	0	0	0	1	29.6767	0.214683	0.214479	0.000188644	2	5.84892e-06	4.04602e-08
2	0	0	0	1	29.7767	0.209683	0.209531	0.000185163	2	5.86741e-06	3.87974e-08
2	0	0	0	1	29.8767	0.204682	0.204495	0.000180427	2	5.88549e-06	3.68964e-08
2	0	0	0	1	29.9767	0.199682	0.199483	0.000177231	2	5.90316e-06	3.53546e-08
2	0	0	0	1	30.0767	0.194682	0.194484	0.000171393	2	5.92045e-06	3.33333e-08
2	0	0	0	1	30.1767	0.189682	0.18948	0.000167403	2	5.93736e-06	3.17196e-08
2	0	0	0	1	30.2767	0.184682	0.184545	0.000164724	2	5.9539e-06	3.0399e-08
2	0	0	0	1	30.3767	0.179681	0.179545	0.000161141	2	5.97006e-06	2.89321e-08
2	0	0	1	1	30.4769	0.174681	0.174463	0.000156768	2	5.98585e-06	2.73501e-08
2	0	0	1	1	30.5769	0.169681	0.169457	0.000154395	2	6.00122e-06	2.61633e-08
2	0	0	1	1	30.6769	0.164681	0.164516	0.000149268	2	6.01618e-06	2.4557e-08
2	0	0	1	1	30.7769	0.159681	0.159508	0.000145348	2	6.03073e-06	2.31842e-08
2	0	0	1	1	30.8769	0.154681	0.154538	0.00014061	2	6.04485e-06	2.17296e-08
2	0	0	1	1	30.9769	0.14968	0.149444	0.000136716	2	6.05846e-06	2.04313e-08
2	0	0	1	1	31.0769	0.14468	0.144462	0.00013027	2	6.07163e-06	1.88191e-08
2	0	0	1	1	31.1769	0.13968	0.139457	0.000124651	2	6.08428e-06	1.73835e-08
2	0	0	1	1	31.2769	0.13468	0.134509	0.000120603	2	6.09636e-06	1.62221e-08
2	0	0	1	1	31.3769	0.12968	0.129496	0.000111559	2	6.10781e-06	1.44464e-08
2	0	0	1	1	31.4769	0.124679	0.124385	0.000106397	2	6.11854e-06	1.32343e-08
2	0	0	1	1	31.5769	0.119679	0.119468	9.59913e-05	2	6.12848e-06	1.14678e-08
2	0	0	1	1	31.6769	0.114679	0.114508	8.68008e-05	2	6.13749e-06	9.93941e-09
2	0	0	1	1	31.7769	0.109679	0.109449	7.66458e-05	2	6.14539e-06	8.38883e-09
2	0	0	1	1	31.8769	0.104679	0.104492	6.19758e-05	2	6.15201e-06	6.47599e-09
2	0	0	1	1	31.9769	0.0996785	0.0994694	4.2844e-05	2	6.15711e-06	4.26167e-09
2	0	0	1	1	32.0769	0.0946784	0.0944984	2.43304e-05	2	6.16034e-06	2.29919e-09
2	0	0	1	1	32.1769	0.0896782	0.0894872	-3.56737e-07	2	6.16132e-06	-3.19234e-11
2	0	0	1	1	32.2769	0.084678	0.0845301	-3.10002e-05	2	6.15956e-06	-2.62045e-09
2	0	0	1	1	32.3769	0.0796778	0.0794585	-6.62239e-05	2	6.15451e-06	-5.26205e-09
2	0	0	1	1	32.4769	0.0746777	0.0745183	-0.000109718	2	6.1455e-06	-8.17599e-09
2	0	0	1	1	32.5769	0.0696775	0.0695802	-0.000160507	2	6.1318e-06	-1.11681e-08
2	0	0	1	1	32.6769	0.0646773	0.0645436	-0.000219605	2	6.11269e-06	-1.41741e-08
2	0	0	1	1	32.7769	0.0596771	0.0594635	-0.000283669	2	6.0874e-06	-1.68679e-08
2	0	0	1	1	32.8769	0.0546769	0.0544745	-0.000352336	2	6.05541e-06	-1.91933e-08
2	0	0	1	1	32.9769	0.0496768	0.0494283	-0.000423373	2	6.01633e-06	-2.09266e-08
2	0	0	1	1	33.0769	0.0446766	0.0445168	-0.000493951	2	5.97017e-06	-2.19891e-08
2	0	0	1	1	33.1769	0.0396764	0.039531	-0.000556454	2	5.91743e-06	-2.19972e-08
2	0	0	1	1	33.2769	0.0346762	0.0344848	-0.000606186	2	5.85893e-06	-2.09042e-08
2	0	0	1	1	33.3769	0.029676	0.0294853	-0.000645612	2	5.79597e-06	-1.90361e-08
2	0	0	1	1	33.4769	0.0246759	0.0245143	-0.000669418	2	5.72998e-06	-1.64103e-08
2	0	0	1	1	33.5769	0.0196757	0.0195392	-0.000675795	2	5.66249e-06	-1.32045e-08
2	0	0	1	1	33.6769	0.0146755	0.0144834	-0.000669738	2	5.59489e-06	-9.70011e-09
2	0	0	1	1	33.7769	0.00967532	0.00954963	-0.000655981	2	5.52833e-06	-6.26438e-09
2	0	0	1	1	33.8769	0.00467514	0.0045151	-0.000633175	2	5.46366e-06	-2.85885e-09
2	0	0	1	1	33.9769	-0.000325043	-0.000538515	-0.000607271	2	5.40141e-06	3.27024e-10
2	0	0	1	1	34.0769	-0.00532523	-0.00554866	-0.000579728	2	5.34176e-06	3.21671e-09
2	0	0	1	1	34.1769	-0.0103254	-0.0105175	-0.000552158	2	5.28493e-06	5.8073e-09
2	0	0	1	1	34.2769	-0.0153256	-0.0154799	-0.000525958	2	5.23082e-06	8.14179e-09
2	0	0	1	1	34.3769	-0.0203258	-0.0205049	-0.000500356	2	5.17929e-06	1.02598e-08
2	0	0	1	1	34.4769	-0.025326	-0.0255946	-0.000477202	2	5.13015e-06	1.22138e-08
2	0	0	1	1	34.5769	-0.0303261	-0.0305422	-0.000457223	2	5.08318e-06	1.39646e-08
2	0	0	1	1	34.6769	-0.0353263	-0.0355248	-0.000438753	2	5.03821e-06	1.55866e-08
2	0	0	1	1	34.7769	-0.0403265	-0.0405296	-0.000421907	2	4.99503e-06	1.70997e-08
2	0	0	1	1	34.8769	-0.0453267	-0.0455906	-0.000405753	2	4.95347e-06	1.84986e-08
2	0	0	1	1	34.9769	-0.0503269	-0.050551	-0.000392322	2	4.91338e-06	1.98322e-08
2	0	0	1	1	35.0769	-0.0553271	-0.0555176	-0.000379307	2	4.87457e-06	2.10582e-08
2	0	0	1	1	35.1769	-0.0603272	-0.0605193	-0.000369267	2	4.83699e-06	2.23478e-08
2	0	0	1	1	35.2769	-0.0653274	-0.0655994	-0.000358349	2	4.80048e-06	2.35075e-08
2	0	0	1	1	35.3769	-0.0703276	-0.070617	-0.000349275	2	4.76497e-06	2.46647e-08
2	0	0	1	1	35.4769	-0.0753278	-0.0755699	-0.000340234	2	4.73037e-06	2.57115e-08
2	0	0	1	1	35.5769	-0.080328	-0.0805016	-0.000332591	2	4.69659e-06	2.67741e-08
2	0	0	1	1	35.6769	-0.0853281	-0.0855478	-0.000323777	2	4.6636e-06	2.76984e-08
2	0	0	1	1	35.7769	-0.0903283	-0.0906057	-0.000318441	2	4.63131e-06	2.88525e-08
2	0	0	1	1	35.8769	-0.0953285	-0.095567	-0.000312841	2	4.59969e-06	2.98973e-08
2	0	0	0	1	35.9771	-0.100329	-0.10055	-0.000304131	2	4.56862e-06	3.05803e-08
2	0	0	0	1	36.0771	-0.105329	-0.105574	-0.000298611	2	4.53817e-06	3.15254e-08
2	0	0	0	1	36.1771	-0.110329	-0.110556	-0.000294845	2	4.50826e-06	3.25969e-08
2	0	0	0	1	36.2771	-0.115329	-0.115546	-0.000290812	2	4.47886e-06	3.36022e-08
2	0	0	0	1	36.3771	-0.120329	-0.120537	-0.000286391	2	4.44991e-06	3.45208e-08
2	0	0	0	1	36.4771	-0.12533	-0.125507	-0.000281032	2	4.42139e-06	3.52715e-08
2	0	0	0	1	36.5771	-0.13033	-0.130548	-0.000276598	2	4.39327e-06	3.61093e-08
2	0	0	0	1	36.6771	-0.13533	-0.135545	-0.000274304	2	4.36555e-06	3.71806e-08
2	0	0	0	1	36.7771	-0.14033	-0.140541	-0.000270981	2	4.33818e-06	3.80839e-08
2	0	0	0	1	36.8771	-0.14533	-0.145522	-0.000265657	2	4.31114e-06	3.8659e-08
2	0	0	0	1	36.9771	-0.150331	-0.150555	-0.000263416	2	4.28439e-06	3.96584e-08
2	0	0	0	1	37.0771	-0.155331	-0.155598	-0.000260898	2	4.25791e-06	4.05952e-08
2	0	0	0	1	37.1771	-0.160331	-0.160577	-0.000259275	2	4.2317e-06	4.16336e-08
2	0	0	0	1	37.2771	-0.165331	-0.165552	-0.000256908	2	4.20572e-06	4.25317e-08
2	0	0	0	1	37.3771	-0.170331	-0.17054	-0.00025388	2	4.17993e-06	4.32968e-08
2	0	0	0	1	37.4771	-0.175331	-0.175556	-0.000255129	2	4.15433e-06	4.47894e-08
2	0	0	0	1	37.5771	-0.180332	-0.18054	-0.000253135	2	4.12888e-06	4.57011e-08
2	0	0	0	1	37.6771	-0.185332	-0.185515	-0.00025013	2	4.10355e-06	4.64031e-08
2	0	0	0	1	37.7771	-0.190332	-0.190555	-0.000249526	2	4.07833e-06	4.75486e-08
2	0	0	0	1	37.8771	-0.195332	-0.195543	-0.000249593	2	4.05315e-06	4.88063e-08
2	1	0	0	0	37.971	-0.200007	-0.200052	-0.000226756	2	4.0296e-06	4.53629e-08
2	1	0	1	0	38.0665	-0.195232	-0.19538	-0.000122703	2	4.01669e-06	2.39736e-08
2	1	0	1	0	38.1665	-0.190232	-0.190371	-0.00010869	2	4.00539e-06	2.06914e-08
2	1	0	1	0	38.2665	-0.185232	-0.185436	-9.7323e-05	2	3.99536e-06	1.80472e-08
2	1	0	1	0	38.3665	-0.180232	-0.180433	-8.70568e-05	2	3.98631e-06	1.57079e-08
2	1	0	1	0	38.4665	-0.175231	-0.175376	-8.04875e-05	2	3.97806e-06	1.41156e-08
2	1	0	1	0	38.5665	-0.170231	-0.170426	-7.46567e-05	2	3.9705e-06	1.27234e-08
2	1	0	1	0	38.6665	-0.165231	-0.165386	-6.97213e-05	2	3.96356e-06	1.15309e-08
2	1	0	1	0	38.7665	-0.160231	-0.160416	-6.31292e-05	2	3.95714e-06	1.01269e-08
2	1	0	1	0	38.8665	-0.155231	-0.155381	-5.99161e-05	2	3.95121e-06	9.30985e-09
2	1	0	1	0	38.9665	-0.150231	-0.15041	-5.47706e-05	2	3.94577e-06	8.23807e-09
2	1	0	1	0	39.0665	-0.14523	-0.14539	-5.00066e-05	2	3.94071e-06	7.27045e-09
2	1	0	1	0	39.1665	-0.14023	-0.140365	-4.74135e-05	2	3.93604e-06	6.65519e-09
2	1	0	1	0	39.2665	-0.13523	-0.135372	-4.26902e-05	2	3.93173e-06	5.77904e-09
2	1	0	1	0	39.3665	-0.13023	-0.130364	-3.92086e-05	2	3.92777e-06	5.11137e-09
2	1	0	1	0	39.4665	-0.12523	-0.125384	-3.8276e-05	2	3.92412e-06	4.7992e-09
2	1	0	1	0	39.5665	-0.120229	-0.120375	-3.31022e-05	2	3.92079e-06	3.98468e-09
2	1	0	1	0	39.6665	-0.115229	-0.115425	-3.0366e-05	2	3.91774e-06	3.50501e-09
2	1	0	1	0	39.7665	-0.110229	-0.110434	-2.80432e-05	2	3.91498e-06	3.09693e-09
2	1	0	1	0	39.8665	-0.105229	-0.105442	-2.66902e-05	2	3.91247e-06	2.81427e-09
2	1	0	1	0	39.9665	-0.100229	-0.100374	-2.3145e-05	2	3.91023e-06	2.32315e-09
2	1	0	0	0	40.0667	-0.0952285	-0.0953688	-2.18078e-05	3	3.90822e-06	2.07979e-09
2	1	0	0	0	40.1667	-0.0902283	-0.0904212	-1.97535e-05	3	3.90644e-06	1.78614e-09
2	1	0	0	0	40.2667	-0.0852281	-0.0854227	-1.66641e-05	3	3.90489e-06	1.42349e-09
2	1	0	0	0	40.3667	-0.080228	-0.0804412	-1.31119e-05	3	3.90355e-06	1.05474e-09
2	1	0	0	0	40.4667	-0.0752278	-0.075395	-1.16829e-05	3	3.90243e-06	8.8083e-10
2	1	0	0	0	40.5667	-0.0702276	-0.0703764	-1.10788e-05	3	3.90151e-06	7.79683e-10
2	1	0	0	0	40.6667	-0.0652274	-0.065415	-8.007e-06	3	3.90078e-06	5.23778e-10
2	1	0	0	0	40.7667	-0.0602272	-0.06039	-5.78134e-06	3	3.90027e-06	3.49135e-10
2	1	0	0	0	40.8667	-0.0552271	-0.0553894	-4.60845e-06	3	3.89995e-06	2.55259e-10
2	1	0	0	0	40.9667	-0.0502269	-0.05041	-1.74512e-06	3	3.89986e-06	8.79716e-11
2	1	0	0	0	41.0667	-0.0452267	-0.0454147	8.13293e-08	3	3.89996e-06	-3.69354e-12
2	1	0	0	0	41.1667	-0.0402265	-0.0403791	3.66005e-06	3	3.90029e-06	-1.47789e-10
2	1	0	0	0	41.2667	-0.0352263	-0.0353954	5.54126e-06	3	3.90087e-06	-1.96135e-10
2	1	0	0	0	41.3667	-0.0302261	-0.0303259	7.92059e-06	3	3.90173e-06	-2.40199e-10
2	1	0	0	0	41.4667	-0.025226	-0.0254048	1.01604e-05	3	3.9029e-06	-2.58123e-10
2	1	0	0	0	41.5667	-0.0202258	-0.0203851	1.57157e-05	3	3.90445e-06	-3.20366e-10
2	1	0	0	0	41.6667	-0.0152256	-0.0153909	2.03136e-05	3	3.90644e-06	-3.12644e-10
2	1	0	0	0	41.7667	-0.0102254	-0.0103266	2.5256e-05	3	3.90898e-06	-2.6081e-10
2	1	0	0	0	41.8667	-0.00522522	-0.00537798	3.40014e-05	3	3.9122e-06	-1.82859e-10
2	1	0	0	0	41.9667	-0.000225036	-0.000361474	4.47605e-05	3	3.9163e-06	-1.61798e-11
2	1	0	0	0	42.0667	0.00477514	0.00461475	5.48078e-05	3	3.92145e-06	2.52924e-10
2	1	0	0	0	42.1667	0.00977532	0.00955599	6.93594e-05	3	3.92794e-06	6.62797e-10
2	1	0	0	0	42.2667	0.0147755	0.0146403	9.04113e-05	3	3.93617e-06	1.32365e-09
2	1	0	0	0	42.3667	0.0197757	0.0196367	0.000115756	3	3.94656e-06	2.27306e-09
2	1	0	0	0	42.4667	0.0247759	0.0246447	0.000145908	3	3.95963e-06	3.59586e-09
2	1	0	0	0	42.5667	0.029776	0.0296549	0.000179406	3	3.97605e-06	5.32026e-09
2	1	0	0	0	42.6667	0.0347762	0.0346322	0.000222714	3	3.99643e-06	7.71308e-09
2	1	0	0	0	42.7667	0.0397764	0.0396529	0.000275636	3	4.02155e-06	1.09298e-08
2	1	0	0	0	42.8667	0.0447766	0.044573	0.000333211	3	4.05206e-06	1.48522e-08
2	1	0	0	0	42.9667	0.0497768	0.0495884	0.000394261	3	4.08858e-06	1.95508e-08
2	1	0	0	0	43.0667	0.0547769	0.0546781	0.000460833	3	4.13162e-06	2.51975e-08
2	1	0	0	0	43.1667	0.0597771	0.0597084	0.000526029	3	4.18124e-06	3.14083e-08
2	1	0	0	0	43.2667	0.0647773	0.0646464	0.000590635	3	4.23733e-06	3.81824e-08
2	1	0	0	0	43.3667	0.0697775	0.0696608	0.000645639	3	4.29942e-06	4.49757e-08
2	1	0	0	0	43.4667	0.0747777	0.074654	0.000693627	3	4.36672e-06	5.1782e-08
2	1	0	0	0	43.5667	0.0797778	0.079609	0.000730511	3	4.43821e-06	5.81552e-08
2	1	0	0	0	43.6667	0.084778	0.0846467	0.00075512	3	4.51275e-06	6.39184e-08
2	1	0	0	0	43.7667	0.0897782	0.0896569	0.000768186	3	4.58915e-06	6.88732e-08
2	1	0	0	0	43.8667	0.0947784	0.0945907	0.000770255	3	4.66633e-06	7.28589e-08
2	1	0	0	0	43.9667	0.0997786	0.0995945	0.000765837	3	4.74334e-06	7.62731e-08
2	1	0	0	0	44.0667	0.104779	0.104596	0.000753177	3	4.81946e-06	7.87794e-08
2	1	0	0	0	44.1667	0.109779	0.10964	0.000736299	3	4.89414e-06	8.0728e-08
2	1	0	0	0	44.2667	0.114779	0.114634	0.000716297	3	4.96701e-06	8.21123e-08
2	1	0	0	0	44.3667	0.119779	0.119662	0.000697361	3	5.0379e-06	8.34473e-08
2	1	0	0	0	44.4667	0.124779	0.12463	0.000674603	3	5.10668e-06	8.40759e-08
2	1	0	0	0	44.5667	0.12978	0.129646	0.000654342	3	5.17338e-06	8.48327e-08
2	1	0	0	0	44.6667	0.13478	0.134622	0.000635106	3	5.23802e-06	8.54993e-08
2	1	0	0	0	44.7667	0.13978	0.139611	0.000616539	3	5.30072e-06	8.60757e-08
2	1	0	0	0	44.8667	0.14478	0.144597	0.000597644	3	5.36158e-06	8.64174e-08
2	1	0	0	0	44.9667	0.14978	0.149633	0.000580392	3	5.42072e-06	8.6846e-08
2	1	0	0	0	45.0667	0.154781	0.154699	0.000565874	3	5.47829e-06	8.75399e-08
2	1	0	0	0	45.1667	0.159781	0.159711	0.000551336	3	5.53436e-06	8.80545e-08
2	1	0	0	0	45.2667	0.164781	0.164609	0.000538857	3	5.58906e-06	8.87005e-08
2	1	0	0	0	45.3667	0.169781	0.169606	0.000526612	3	5.64251e-06	8.93166e-08
2	1	0	0	0	45.4667	0.174781	0.174641	0.000515048	3	5.69481e-06	8.99482e-08
2	1	0	1	0	45.5669	0.179781	0.179639	0.000505497	3	5.74612e-06	9.0807e-08
2	1	0	1	0	45.6669	0.184782	0.184675	0.000495532	3	5.79635e-06	9.15123e-08
2	1	0	1	0	45.7669	0.189782	0.189639	0.000486262	3	5.84568e-06	9.22145e-08
2	1	0	1	0	45.8669	0.194782	0.194688	0.00047845	3	5.89419e-06	9.31482e-08
2	1	0	1	0	45.9669	0.199782	0.199641	0.000471834	3	5.94195e-06	9.41973e-08
2	1	0	1	0	46.0669	0.204782	0.204656	0.000464283	3	5.98902e-06	9.50183e-08
2	1	0	1	0	46.1669	0.209783	0.209627	0.000460706	3	6.03546e-06	9.65764e-08
2	1	0	1	0	46.2669	0.214783	0.214624	0.000454337	3	6.08131e-06	9.75117e-08
2	1	0	1	0	46.3669	0.219783	0.219677	0.000447838	3	6.12666e-06	9.83796e-08
2	1	0	1	0	46.4669	0.224783	0.22463	0.000445044	3	6.17151e-06	9.997e-08
2	1	0	1	0	46.5669	0.229783	0.229625	0.000440806	3	6.21594e-06	1.0122e-07
2	1	0	1	0	46.6669	0.234783	0.234659	0.000436279	3	6.25997e-06	1.02377e-07
2	1	0	1	0	46.7669	0.239784	0.239599	0.000433177	3	6.30364e-06	1.03789e-07
2	1	0	1	0	46.8669	0.244784	0.244652	0.000430851	3	6.34703e-06	1.05409e-07
2	1	0	1	0	46.9669	0.249784	0.249613	0.000426763	3	6.39013e-06	1.06525e-07
2	1	0	1	0	47.0669	0.254784	0.25459	0.000426187	3	6.43303e-06	1.08503e-07
2	1	0	1	0	47.1669	0.259784	0.259642	0.000426166	3	6.47578e-06	1.10651e-07
2	1	0	1	0	47.2669	0.264785	0.264664	0.000423312	3	6.51838e-06	1.12035e-07
2	1	0	1	0	47.3669	0.269785	0.269645	0.000422536	3	6.56091e-06	1.13935e-07
2	1	0	1	0	47.4669	0.274785	0.274652	0.000422684	3	6.6034e-06	1.16091e-07
2	1	0	1	0	47.5669	0.279785	0.279644	0.000423907	3	6.64591e-06	1.18543e-07
2	1	0	1	0	47.6669	0.284785	0.284648	0.000424693	3	6.68852e-06	1.20888e-07
2	1	0	1	0	47.7669	0.289785	0.28963	0.000426012	3	6.73125e-06	1.23386e-07
2	1	0	1	0	47.8669	0.294786	0.294661	0.000427531	3	6.77415e-06	1.25977e-07
2	1	0	1	0	47.9664	0.299761	0.299572	0.000430732	3	6.81706e-06	1.29035e-07
2	0	0	1	0	48.0473	0.296186	0.296061	0.000312624	3	6.84385e-06	9.25557e-08
2	0	0	1	0	48.1473	0.291185	0.291022	0.000288135	3	6.87356e-06	8.38535e-08
2	0	0	1	0	48.2473	0.286185	0.286048	0.000271504	3	6.90136e-06	7.76632e-08
2	0	0	1	0	48.3473	0.281185	0.280979	0.000258996	3	6.92772e-06	7.27723e-08
2	0	0	1	0	48.4473	0.276185	0.275992	0.000249161	3	6.9529e-06	6.87663e-08
2	0	0	1	0	48.5473	0.271185	0.271028	0.000239838	3	6.97708e-06	6.50028e-08
2	0	0	1	0	48.6473	0.266185	0.26598	0.000230734	3	7.00041e-06	6.13705e-08
2	0	0	1	0	48.7473	0.261184	0.261023	0.000225281	3	7.02297e-06	5.88035e-08
2	0	0	1	0	48.8473	0.256184	0.255971	0.000219016	3	7.04487e-06	5.60617e-08
2	0	0	1	0	48.9473	0.251184	0.251025	0.00021122	3	7.06612e-06	5.30216e-08
2	0	0	1	0	49.0473	0.246184	0.245983	0.000206656	3	7.08681e-06	5.08338e-08
2	0	0	1	0	49.1473	0.241184	0.241003	0.000202153	3	7.107e-06	4.87197e-08
2	0	0	1	0	49.2473	0.236183	0.236003	0.000197292	3	7.12669e-06	4.65615e-08
2	0	0	1	0	49.3473	0.231183	0.231004	0.000192726	3	7.14594e-06	4.45206e-08
2	0	0	1	0	49.4473	0.226183	0.225988	0.000187992	3	7.16473e-06	4.2484e-08
2	0	0	1	0	49.5473	0.221183	0.220977	0.000184391	3	7.18311e-06	4.0746e-08
2	0	0	1	0	49.6473	0.216183	0.216056	0.000179153	3	7.20108e-06	3.8707e-08
2	0	0	1	0	49.7473	0.211183	0.211067	0.000175942	3	7.21868e-06	3.71355e-08
2	0	0	1	0	49.8473	0.206182	0.206031	0.000172178	3	7.2359e-06	3.54739e-08
2	0	0	1	0	49.9473	0.201182	0.201013	0.000168617	3	7.25271e-06	3.38942e-08
2	0	0	1	0	50.0473	0.196182	0.196082	0.000165269	3	7.2692e-06	3.24063e-08
2	0	0	1	0	50.1473	0.191182	0.191011	0.000160784	3	7.2853e-06	3.07116e-08
2	0	0	1	0	50.2473	0.186182	0.18604	0.000156775	3	7.30106e-06	2.91664e-08
2	0	0	1	0	50.3473	0.181181	0.180998	0.000154528	3	7.31644e-06	2.79693e-08
2	0	0	0	0	50.4475	0.176178	0.176021	0.00015058	3	7.33148e-06	2.65053e-08
2	0	0	0	0	50.5475	0.171181	0.170958	0.000147496	3	7.34613e-06	2.52156e-08
2	0	0	0	0	50.6475	0.166181	0.165975	0.000142845	3	7.36038e-06	2.37087e-08
2	0	0	0	0	50.7475	0.161181	0.161028	0.000138667	3	7.37423e-06	2.23293e-08
2	0	0	0	0	50.8475	0.156181	0.156009	0.000134592	3	7.38767e-06	2.09976e-08
2	0	0	0	0	50.9475	0.15118	0.150949	0.000129417	3	7.40065e-06	1.95353e-08
2	0	0	0	0	51.0475	0.14618	0.146005	0.000124768	3	7.4132e-06	1.82167e-08
2	0	0	0	0	51.1475	0.14118	0.140992	0.000119804	3	7.42525e-06	1.68915e-08
2	0	0	0	0	51.2475	0.13618	0.135965	0.000113703	3	7.43676e-06	1.54596e-08
2	0	0	0	0	51.3475	0.13118	0.131023	0.000108312	3	7.44767e-06	1.41913e-08
2	0	0	0	0	51.4475	0.126179	0.125994	0.000101117	3	7.45791e-06	1.27402e-08
2	0	0	0	0	51.5475	0.121179	0.120958	9.23455e-05	3	7.46741e-06	1.11699e-08
2	0	0	0	0	51.6475	0.116179	0.115952	8.2897e-05	3	7.47604e-06	9.61209e-09
2	0	0	0	0	51.7475	0.111179	0.111029	7.27297e-05	3	7.48365e-06	8.0751e-09
2	0	0	0	0	51.8475	0.106179	0.105982	5.88052e-05	3	7.49007e-06	6.23227e-09
2	0	0	0	0	51.9475	0.101179	0.101004	4.41052e-05	3	7.49508e-06	4.45482e-09
2	0	0	0	0	52.0475	0.0961784	0.0960229	2.5173e-05	3	7.49839e-06	2.41718e-09
2	0	0	0	0	52.1475	0.0911783	0.0909502	3.14249e-06	3	7.49963e-06	2.8581e-10
2	0	0	0	0	52.2475	0.0861781	0.0859655	-2.37315e-05	3	7.49835e-06	-2.04009e-09
2	0	0	0	0	52.3475	0.0811779	0.0810094	-5.75844e-05	3	7.49405e-06	-4.66488e-09
2	0	0	0	0	52.4475	0.0761777	0.0760215	-9.60336e-05	3	7.48612e-06	-7.30062e-09
2	0	0	0	0	52.5475	0.0711775	0.0709807	-0.000144606	3	7.47384e-06	-1.02642e-08
2	0	0	0	0	52.6475	0.0661773	0.0660214	-0.000197667	3	7.45651e-06	-1.30502e-08
2	0	0	0	0	52.7475	0.0611772	0.0610049	-0.000261291	3	7.43339e-06	-1.594e-08
2	0	0	0	0	52.8475	0.056177	0.0560276	-0.00032699	3	7.40387e-06	-1.83205e-08
2	0	0	0	0	52.9475	0.0511768	0.0509846	-0.000396121	3	7.36749e-06	-2.01961e-08
2	0	0	0	0	53.0475	0.0461766	0.0459034	-0.000466201	3	7.32403e-06	-2.14002e-08
2	0	0	0	0	53.1475	0.0411765	0.0409696	-0.000531577	3	7.27382e-06	-2.17785e-08
2	0	0	0	0	53.2475	0.0361763	0.0360284	-0.000588466	3	7.21755e-06	-2.12015e-08
2	0	0	0	0	53.3475	0.0311761	0.0310087	-0.000633082	3	7.15623e-06	-1.9631e-08
2	0	0	0	0	53.4475	0.0261759	0.0259869	-0.000661685	3	7.09125e-06	-1.71951e-08
2	0	0	0	0	53.5475	0.0211757	0.0209894	-0.000676319	3	7.02407e-06	-1.41956e-08
2	0	0	0	0	53.6475	0.0161756	0.0158945	-0.000675738	3	6.95618e-06	-1.07405e-08
2	0	0	0	0	53.7475	0.0111754	0.010967	-0.00066558	3	6.88881e-06	-7.29942e-09
2	0	0	0	0	53.8475	0.00617519	0.00598867	-0.000647587	3	6.82294e-06	-3.87819e-09
2	0	0	0	0	53.9475	0.00117501	0.00100291	-0.000622153	3	6.75924e-06	-6.23961e-10
2	0	0	0	0	54.0475	-0.00382517	-0.00404223	-0.000596964	3	6.698e-06	2.41306e-09
2	0	0	0	0	54.1475	-0.00882535	-0.0091075	-0.000568227	3	6.63954e-06	5.17513e-09
2	0	0	0	0	54.2475	-0.0138255	-0.0140381	-0.00054396	3	6.58379e-06	7.63619e-09
2	0	0	0	0	54.3475	-0.0188257	-0.0190568	-0.000516975	3	6.53065e-06	9.85187e-09
2	0	0	0	0	54.4475	-0.0238259	-0.0239683	-0.000492432	3	6.47997e-06	1.18028e-08
2	0	0	0	0	54.5475	-0.0288261	-0.0290495	-0.000471244	3	6.43154e-06	1.36894e-08
2	0	0	0	0	54.6475	-0.0338263	-0.0340406	-0.000452328	3	6.38516e-06	1.53975e-08
2	0	0	0	0	54.7475	-0.0388265	-0.039038	-0.000434109	3	6.34064e-06	1.69468e-08
2	0	0	0	0	54.8475	-0.0438266	-0.0440376	-0.000417783	3	6.29779e-06	1.83981e-08
2	0	0	0	0	54.9475	-0.0488268	-0.0490042	-0.000403219	3	6.25646e-06	1.97594e-08
2	0	0	0	0	55.0475	-0.053827	-0.0540388	-0.000391105	3	6.21646e-06	2.11348e-08
2	0	0	0	0	55.1475	-0.0588272	-0.0590288	-0.000379047	3	6.17773e-06	2.23747e-08
2	0	0	0	0	55.2475	-0.0638274	-0.0639976	-0.000369106	3	6.14013e-06	2.36219e-08
2	0	0	0	0	55.3475	-0.0688275	-0.069065	-0.000358985	3	6.10354e-06	2.47933e-08
2	0	0	0	0	55.4475	-0.0738277	-0.0740603	-0.000350345	3	6.06791e-06	2.59467e-08
2	0	0	0	0	55.5475	-0.0788279	-0.079045	-0.000341054	3	6.03312e-06	2.69586e-08
2	0	0	0	0	55.6475	-0.0838281	-0.0840764	-0.000333718	3	5.99915e-06	2.80578e-08
2	0	0	0	0	55.7475	-0.0888283	-0.089025	-0.000326903	3	5.96592e-06	2.91026e-08
2	0	0	0	0	55.8475	-0.0938285	-0.0940458	-0.000318388	3	5.93335e-06	2.9943e-08
2	0	0	0	0	55.9476	-0.0988243	-0.0990655	-0.000312468	3	5.9014e-06	3.09548e-08
2	0	0	1	0	56.0477	-0.103829	-0.104077	-0.000307386	3	5.87006e-06	3.19917e-08
2	0	0	1	0	56.1477	-0.108829	-0.109036	-0.000303129	3	5.83929e-06	3.3052e-08
2	0	0	1	0	56.2477	-0.113829	-0.114077	-0.000296555	3	5.80905e-06	3.383e-08
2	0	0	1	0	56.3477	-0.118829	-0.119017	-0.000293128	3	5.77927e-06	3.48872e-08
2	0	0	1	0	56.4477	-0.12383	-0.124013	-0.000287308	3	5.74997e-06	3.563e-08
2	0	0	1	0	56.5477	-0.12883	-0.128982	-0.000285132	3	5.72108e-06	3.67769e-08
2	0	0	1	0	56.6477	-0.13383	-0.133994	-0.00028191	3	5.69259e-06	3.77743e-08
2	0	0	1	0	56.7477	-0.13883	-0.138987	-0.000276729	3	5.66449e-06	3.84616e-08
2	0	0	1	0	56.8477	-0.14383	-0.144075	-0.000273987	3	5.63673e-06	3.94748e-08
2	0	0	1	0	56.9477	-0.14883	-0.149014	-0.000271414	3	5.60931e-06	4.04445e-08
2	0	0	1	0	57.0477	-0.153831	-0.1541	-0.000267982	3	5.58218e-06	4.12959e-08
2	0	0	1	0	57.1477	-0.158831	-0.159049	-0.000265397	3	5.55529e-06	4.22113e-08
2	0	0	1	0	57.2477	-0.163831	-0.164014	-0.000261824	3	5.52868e-06	4.29428e-08
2	0	0	1	0	57.3477	-0.168831	-0.169106	-0.000261995	3	5.50229e-06	4.43049e-08
2	0	0	1	0	57.4477	-0.173831	-0.174094	-0.000258079	3	5.47609e-06	4.493e-08
2	0	0	1	0	57.5477	-0.178832	-0.179025	-0.000257155	3	5.45007e-06	4.60373e-08
2	0	0	1	0	57.6477	-0.183832	-0.184013	-0.00025425	3	5.42419e-06	4.67853e-08
2	0	0	1	0	57.7477	-0.188832	-0.189041	-0.000255597	3	5.39843e-06	4.83185e-08
2	0	0	1	0	57.8477	-0.193832	-0.194045	-0.000253427	3	5.37275e-06	4.91762e-08
2	0	0	1	0	57.9477	-0.198832	-0.19908	-0.000252451	3	5.34714e-06	5.0258e-08
2	1	0	0	1	58.0371	-0.196732	-0.19694	-0.000133843	3	5.33166e-06	2.63592e-08
2	1	0	0	1	58.1371	-0.191732	-0.191951	-0.000117338	3	5.31951e-06	2.25232e-08
2	1	0	0	1	58.2371	-0.186732	-0.1869	-0.000104049	3	5.30877e-06	1.94468e-08
2	1	0	0	1	58.3371	-0.181732	-0.181871	-9.41276e-05	3	5.29907e-06	1.71191e-08
2	1	0	0	1	58.4371	-0.176731	-0.176858	-8.82031e-05	3	5.29021e-06	1.55995e-08
2	1	0	0	1	58.5371	-0.171731	-0.171952	-8.05582e-05	3	5.28206e-06	1.38522e-08
2	1	0	0	1	58.6371	-0.166731	-0.16696	-7.54392e-05	3	5.27455e-06	1.25953e-08
2	1	0	0	1	58.7371	-0.161731	-0.161922	-7.01806e-05	3	5.26758e-06	1.13638e-08
2	1	0	0	1	58.8371	-0.156731	-0.156893	-6.41678e-05	3	5.2611e-06	1.00675e-08
2	1	0	0	1	58.9371	-0.151731	-0.151936	-6.04566e-05	3	5.25513e-06	9.18553e-09
2	1	0	0	1	59.0371	-0.14673	-0.146885	-5.59064e-05	3	5.24955e-06	8.21178e-09
2	1	0	0	1	59.1371	-0.14173	-0.141921	-5.14921e-05	3	5.24436e-06	7.30782e-09
2	1	0	0	1	59.2371	-0.13673	-0.136874	-4.84363e-05	3	5.23954e-06	6.62965e-09
2	1	0	0	1	59.3371	-0.13173	-0.131945	-4.71503e-05	3	5.23508e-06	6.22126e-09
2	1	0	0	1	59.4371	-0.12673	-0.126929	-4.26248e-05	3	5.23095e-06	5.41031e-09
2	1	0	0	1	59.5371	-0.121729	-0.12192	-3.8797e-05	3	5.22712e-06	4.73012e-09
2	1	0	0	1	59.6371	-0.116729	-0.116917	-3.64407e-05	3	5.2236e-06	4.26053e-09
2	1	0	0	1	59.7371	-0.111729	-0.111923	-3.44976e-05	3	5.22038e-06	3.86107e-09
2	1	0	0	1	59.8371	-0.106729	-0.106897	-3.26288e-05	3	5.21743e-06	3.48791e-09
2	1	0	0	1	59.9371	-0.101729	-0.101893	-2.80379e-05	3	5.21473e-06	2.85686e-09
2	1	0	1	1	60.0373	-0.0967286	-0.096906	-2.67184e-05	3	5.21227e-06	2.58918e-09
2	1	0	1	1	60.1373	-0.0917284	-0.0919202	-2.40635e-05	3	5.21006e-06	2.21193e-09
2	1	0	1	1	60.2373	-0.0867282	-0.086926	-2.17796e-05	3	5.2081e-06	1.89321e-09
2	1	0	1	1	60.3373	-0.081728	-0.0818957	-1.94003e-05	3	5.20634e-06	1.5888e-09
2	1	0	1	1	60.4373	-0.0767278	-0.0769088	-1.73177e-05	3	5.20479e-06	1.33188e-09
2	1	0	1	1	60.5373	-0.0717277	-0.0718552	-1.47864e-05	3	5.20346e-06	1.06248e-09
2	1	0	1	1	60.6358	-0.0668025	-0.0669834	-1.23108e-05	3	5.20234e-06	8.24621e-10
2	1	0	0	1	60.6398	-0.0666024	-0.0667051	-1.53817e-05	3	5.2023e-06	1.02604e-09