File: AutoAnalysis Examples/EC/C000A-20ppb-A_C01.mpt
EC-Lab ASCII FILE
Nb header lines : 59

Cyclic Voltammetry

Run on channel : 1 (SN 22398)
User :
CE vs. WE compliance from -10 V to 10 V
Electrode connection : standard
Ewe ctrl range : min = -1.00 V, max = 1.00 V
Safety Limits :
	Ewe min = -2.00 V
	Ewe max = 2.00 V
	|I| = 50.000 mA
	for t > 10 ms
Acquisition started on : 11/21/2018 10:44:14
Technique started on : 11/21/2018 10:44:14
Saved on :
	File : C000A-20ppb-A_C01.mpr
	Directory : \\ECCOMPUTER\Users\Lab User\Google Drive\Electrochemical Data\EC-Lab\Data\FREDsense\Tim\2018.11.21 - EC comparison to High Throughput\
	Host : 172.16.1.30
Device : SP-50 (SN 0301030103010301)
Address : USB
EC-Lab for windows v11.02 (software)
Internet server v11.02 (firmware)
Command interpretor v11.02 (firmware)
Electrode material : Au/Pd
Initial state :
Electrolyte : NaCl (0.2M)
Comments : Fe(CN)63-/Fe(CN)64- 5.10-3 M
Reference electrode : SCE Saturated Calomel Electrode (0.241 V)
Electrode surface area : 0.001 cm²
Characteristic mass : 0.001 g
Equivalent Weight : 0.000 g/eq.
Density : 0.000 g/cm3
Cycle Definition : Charge/Discharge alternance
Ei (V)              -0.100
vs.                 Ref
dE/dt               50.000
dE/dt unit          mV/s
E1 (V)              0.300
vs.                 Ref
Step percent        50
N                   10
E range min (V)     -1.000
E range max (V)     1.000
I Range             Auto
I Range min         Unset
I Range max         Unset
I Range init        Unset
Bandwidth           5
E2 (V)              -0.200
vs.                 Ref
nc cycles           2
Reverse Scan        1
Ef (V)              0.000
vs.                 Eoc

mode	ox/red	error	control changes	counter inc.	time/s	control/V	Ewe/V	<I>/mA	cycle number	(Q-Qo)/C	P/W
2	1	0	1	0	0.000000000000000E+000	-0.0984998	-0.0986864	-8.64074e-05	1	0.0000000E+000	8.52724e-09
2	1	0	0	0	0.111	-0.0929496	-0.0930373	-1.52644e-05	1	3.65269e-10	1.42016e-09
2	1	0	1	0	0.2265	-0.0871744	-0.0872795	3.14455e-05	1	4.38062e-09	-2.74454e-09
2	1	0	1	0	0.3265	-0.0821742	-0.0821951	3.77956e-05	1	8.28986e-09	-3.10662e-09
2	1	0	1	0	0.4265	-0.0771741	-0.0772698	4.1415e-05	1	1.26923e-08	-3.20013e-09
2	1	0	1	0	0.5265	-0.0721739	-0.0722617	4.53293e-05	1	1.74668e-08	-3.27558e-09
2	1	0	1	0	0.6265	-0.0671737	-0.0673099	4.79877e-05	1	2.24997e-08	-3.23005e-09
2	1	0	1	0	0.7265	-0.0621735	-0.0622838	5.01428e-05	1	2.77934e-08	-3.12308e-09
2	1	0	1	0	0.8265	-0.0571733	-0.0572143	5.47142e-05	1	3.33297e-08	-3.13043e-09
2	1	0	1	0	0.9265	-0.0521731	-0.0522625	5.70052e-05	1	3.91457e-08	-2.97923e-09
2	1	0	1	0	1.0265	-0.0471729	-0.0472513	5.50498e-05	1	4.50315e-08	-2.60117e-09
2	1	0	1	0	1.1265	-0.0421728	-0.0422952	5.79591e-05	1	5.115e-08	-2.45139e-09
2	1	0	1	0	1.2265	-0.0371726	-0.0372575	5.85331e-05	1	5.74628e-08	-2.1808e-09
2	1	0	1	0	1.3265	-0.0321724	-0.032259	6.31894e-05	1	6.40281e-08	-2.03842e-09
2	1	0	1	0	1.4265	-0.0271722	-0.0272806	6.69765e-05	1	7.07491e-08	-1.82716e-09
2	1	0	1	0	1.5265	-0.022172	-0.0222397	6.90379e-05	1	7.79589e-08	-1.53539e-09
2	1	0	1	0	1.6265	-0.0171718	-0.0172794	7.15038e-05	1	8.54582e-08	-1.23554e-09
2	1	0	1	0	1.7265	-0.0121717	-0.0121813	7.86047e-05	1	9.33914e-08	-9.57506e-10
2	1	0	1	0	1.8265	-0.00717147	-0.00730259	8.51651e-05	1	1.01774e-07	-6.21925e-10
2	1	0	1	0	1.9265	-0.00217128	-0.00227547	9.26369e-05	1	1.1096e-07	-2.10793e-10
2	1	0	1	0	2.0265	0.0028289	0.0027633	0.000101806	1	1.2115e-07	2.81321e-10
2	1	0	1	0	2.1265	0.00782908	0.00777451	0.000118539	1	1.32515e-07	9.21585e-10
2	1	0	1	0	2.2265	0.0128293	0.0127677	0.000134357	1	1.45422e-07	1.71543e-09
2	1	0	1	0	2.3265	0.0178294	0.0177651	0.000156852	1	1.60324e-07	2.7865e-09
2	1	0	1	0	2.4265	0.0228296	0.0227901	0.00018674	1	1.77869e-07	4.25582e-09
2	1	0	1	0	2.5265	0.0278298	0.0277907	0.000221934	1	1.9862e-07	6.16769e-09
2	1	0	1	0	2.6265	0.03283	0.03275	0.00026848	1	2.23512e-07	8.79271e-09
2	1	0	1	0	2.7265	0.0378302	0.0377008	0.00032062	1	2.53301e-07	1.20876e-08
2	1	0	1	0	2.8265	0.0428304	0.0427194	0.000384423	1	2.88877e-07	1.64223e-08
2	1	0	1	0	2.9265	0.0478305	0.0477391	0.000452817	1	3.31054e-07	2.16171e-08
2	1	0	1	0	3.0265	0.0528307	0.0527948	0.000528235	1	3.80437e-07	2.78881e-08
2	1	0	1	0	3.1265	0.0578309	0.0577944	0.000601718	1	4.37289e-07	3.47759e-08
2	1	0	1	0	3.2265	0.0628311	0.0627282	0.000671656	1	5.01501e-07	4.21318e-08
2	1	0	1	0	3.3265	0.0678313	0.067768	0.000737673	1	5.72496e-07	4.99907e-08
2	1	0	1	0	3.4265	0.0728315	0.0727548	0.000790199	1	6.49352e-07	5.74908e-08
2	1	0	1	0	3.5265	0.0778316	0.077748	0.000829869	1	7.30848e-07	6.45206e-08
2	1	0	1	0	3.6265	0.0828318	0.0827539	0.000853477	1	8.15536e-07	7.06285e-08
2	1	0	1	0	3.7265	0.087832	0.0877715	0.000865829	1	9.0199e-07	7.59951e-08
2	1	0	1	0	3.8265	0.0928322	0.0927551	0.000865419	1	9.89106e-07	8.02721e-08
2	1	0	1	0	3.9265	0.0978324	0.0977504	0.000855082	1	1.07571e-06	8.35847e-08
2	1	0	1	0	4.0265	0.102833	0.102795	0.000840767	1	1.16104e-06	8.64263e-08
2	1	0	1	0	4.1265	0.107833	0.107707	0.000821856	1	1.24462e-06	8.85198e-08
2	1	0	1	0	4.2265	0.112833	0.112762	0.000801124	1	1.32609e-06	9.03362e-08
2	1	0	1	0	4.3265	0.117833	0.117748	0.000776993	1	1.40541e-06	9.14891e-08
2	1	0	1	0	4.4265	0.122833	0.122742	0.000754931	1	1.48246e-06	9.26616e-08
2	1	0	1	0	4.5265	0.127833	0.127721	0.000735095	1	1.55735e-06	9.38872e-08
2	1	0	1	0	4.6265	0.132834	0.132721	0.000714792	1	1.63017e-06	9.48677e-08
2	1	0	1	0	4.7265	0.137834	0.137672	0.000696536	1	1.70105e-06	9.58932e-08
2	1	0	1	0	4.8265	0.142834	0.14274	0.000678448	1	1.7702e-06	9.68417e-08
2	1	0	1	0	4.9265	0.147834	0.147737	0.000663766	1	1.8377e-06	9.8063e-08
2	1	0	1	0	5.0265	0.152834	0.152708	0.000653422	1	1.90375e-06	9.97829e-08
2	1	0	1	0	5.1265	0.157835	0.157795	0.000637286	1	1.96848e-06	1.0056e-07
2	1	0	1	0	5.2265	0.162835	0.162769	0.000625605	1	2.03199e-06	1.01829e-07
2	1	0	1	0	5.3265	0.167835	0.167725	0.000616326	1	2.09442e-06	1.03373e-07
2	1	0	0	0	5.4267	0.172835	0.172778	0.000606342	1	2.15595e-06	1.04762e-07
2	1	0	0	0	5.5267	0.177835	0.177709	0.000597978	1	2.21648e-06	1.06266e-07
2	1	0	0	0	5.6267	0.182835	0.182748	0.000589519	1	2.27621e-06	1.07733e-07
2	1	0	0	0	5.7267	0.187836	0.187768	0.000583691	1	2.33522e-06	1.09598e-07
2	1	0	0	0	5.8267	0.192836	0.192781	0.000577382	1	2.39361e-06	1.11308e-07
2	1	0	0	0	5.9267	0.197836	0.197719	0.000571959	1	2.45142e-06	1.13087e-07
2	1	0	0	0	6.0267	0.202836	0.202735	0.00056773	1	2.50873e-06	1.15099e-07
2	1	0	0	0	6.1267	0.207836	0.207775	0.000564424	1	2.5656e-06	1.17273e-07
2	1	0	0	0	6.2267	0.212837	0.2127	0.000560437	1	2.62213e-06	1.19205e-07
2	1	0	0	0	6.3267	0.217837	0.217738	0.000556471	1	2.67828e-06	1.21165e-07
2	1	0	0	0	6.4267	0.222837	0.222765	0.000553668	1	2.73416e-06	1.23338e-07
2	1	0	0	0	6.5267	0.227837	0.227733	0.000553175	1	2.78979e-06	1.25976e-07
2	1	0	0	0	6.6267	0.232837	0.232769	0.000552122	1	2.84526e-06	1.28517e-07
2	1	0	0	0	6.7267	0.237838	0.237731	0.000549755	1	2.90055e-06	1.30694e-07
2	1	0	0	0	6.8267	0.242838	0.242744	0.000549789	1	2.95568e-06	1.33458e-07
2	1	0	0	0	6.9267	0.247838	0.247726	0.000547003	1	3.01076e-06	1.35507e-07
2	1	0	0	0	7.0267	0.252838	0.252746	0.000547491	1	3.06576e-06	1.38376e-07
2	1	0	0	0	7.1267	0.257838	0.257767	0.000547406	1	3.12079e-06	1.41103e-07
2	1	0	0	0	7.2267	0.262838	0.262716	0.000547381	1	3.17582e-06	1.43806e-07
2	1	0	0	0	7.3267	0.267839	0.26773	0.00055533	1	3.23121e-06	1.48678e-07
2	1	0	0	0	7.4267	0.272839	0.272727	0.000555763	1	3.28713e-06	1.51572e-07
2	1	0	0	0	7.5267	0.277839	0.277727	0.000550598	1	3.34275e-06	1.52916e-07
2	1	0	0	0	7.6267	0.282839	0.282708	0.000551967	1	3.39811e-06	1.56046e-07
2	1	0	0	0	7.7267	0.287839	0.287724	0.000551962	1	3.45352e-06	1.58812e-07
2	1	0	0	0	7.8267	0.292839	0.292741	0.000553401	1	3.50906e-06	1.62003e-07
2	1	0	0	0	7.9267	0.29784	0.297742	0.000557305	1	3.56484e-06	1.65933e-07
2	0	0	1	0	8.0061	0.29819	0.298025	0.00044171	1	3.60548e-06	1.31641e-07
2	0	0	1	0	8.1061	0.29319	0.293047	0.000396293	1	3.64701e-06	1.16132e-07
2	0	0	1	0	8.2061	0.288189	0.288037	0.000366508	1	3.68491e-06	1.05568e-07
2	0	0	1	0	8.3061	0.283189	0.282979	0.000343792	1	3.72022e-06	9.72857e-08
2	0	0	1	0	8.4061	0.278189	0.278011	0.000324302	1	3.75345e-06	9.01593e-08
2	0	0	1	0	8.5061	0.273189	0.273033	0.000310048	1	3.78503e-06	8.46536e-08
2	0	0	1	0	8.6061	0.268189	0.26806	0.000297164	1	3.81517e-06	7.9658e-08
2	0	0	1	0	8.7061	0.263188	0.263064	0.000285582	1	3.8441e-06	7.51264e-08
2	0	0	1	0	8.8061	0.258188	0.258033	0.000274629	1	3.87196e-06	7.08632e-08
2	0	0	1	0	8.9061	0.253188	0.253029	0.000266689	1	3.89885e-06	6.748e-08
2	0	0	1	0	9.0061	0.248188	0.248046	0.00025807	1	3.92491e-06	6.40135e-08
2	0	0	1	0	9.1061	0.243188	0.243022	0.000250037	1	3.95018e-06	6.07646e-08
2	0	0	1	0	9.2061	0.238188	0.238036	0.000242007	1	3.97473e-06	5.76063e-08
2	0	0	1	0	9.3061	0.233187	0.233007	0.000237722	1	3.99859e-06	5.53909e-08
2	0	0	1	0	9.4061	0.228187	0.228	0.000231493	1	4.02182e-06	5.27806e-08
2	0	0	1	0	9.5061	0.223187	0.223101	0.000224097	1	4.04447e-06	4.99963e-08
2	0	0	1	0	9.6061	0.218187	0.218047	0.000219001	1	4.0666e-06	4.77526e-08
2	0	0	1	0	9.7061	0.213187	0.213007	0.000214903	1	4.0882e-06	4.5776e-08
2	0	0	1	0	9.8061	0.208186	0.208055	0.000211035	1	4.10933e-06	4.39069e-08
2	0	0	1	0	9.9061	0.203186	0.203005	0.000205644	1	4.12998e-06	4.17467e-08
2	0	0	1	0	10.0061	0.198186	0.198055	0.000201242	1	4.15015e-06	3.9857e-08
2	0	0	1	0	10.1061	0.193186	0.193074	0.000197227	1	4.16989e-06	3.80793e-08
2	0	0	1	0	10.2061	0.188186	0.18805	0.000191488	1	4.18917e-06	3.60093e-08
2	0	0	1	0	10.3061	0.183186	0.183	0.000187613	1	4.20803e-06	3.43332e-08
2	0	0	1	0	10.4061	0.178185	0.178098	0.000183041	1	4.22645e-06	3.25993e-08
2	0	0	1	0	10.5061	0.173185	0.173055	0.000179287	1	4.24443e-06	3.10267e-08
2	0	0	0	0	10.6063	0.168185	0.168092	0.000174338	1	4.26201e-06	2.93048e-08
2	0	0	0	0	10.7063	0.163185	0.163054	0.000170316	1	4.27912e-06	2.77707e-08
2	0	0	0	0	10.8063	0.158185	0.158037	0.000165709	1	4.29579e-06	2.61881e-08
2	0	0	0	0	10.9063	0.153184	0.153044	0.000161189	1	4.31189e-06	2.46691e-08
2	0	0	0	0	11.0063	0.148184	0.148047	0.000155664	1	4.32751e-06	2.30455e-08
2	0	0	0	0	11.1063	0.143184	0.143047	0.000149031	1	4.34262e-06	2.13185e-08
2	0	0	0	0	11.2063	0.138184	0.138045	0.000143382	1	4.35715e-06	1.97931e-08
2	0	0	0	0	11.3063	0.133184	0.13302	0.000138069	1	4.37108e-06	1.83659e-08
2	0	0	0	0	11.4063	0.128183	0.128023	0.000129219	1	4.38433e-06	1.6543e-08
2	0	0	0	0	11.5063	0.123183	0.123029	0.00012191	1	4.39682e-06	1.49984e-08
2	0	0	0	0	11.6063	0.118183	0.118035	0.000110744	1	4.40833e-06	1.30717e-08
2	0	0	0	0	11.7063	0.113183	0.113048	0.000101762	1	4.41887e-06	1.1504e-08
2	0	0	0	0	11.8063	0.108183	0.108073	8.90706e-05	1	4.42819e-06	9.62611e-09
2	0	0	0	0	11.9063	0.103183	0.103132	7.13554e-05	1	4.43609e-06	7.359e-09
2	0	0	0	0	12.0063	0.0981824	0.0980303	5.32092e-05	1	4.44227e-06	5.21612e-09
2	0	0	0	0	12.1063	0.0931822	0.0930976	3.03609e-05	1	4.44637e-06	2.82652e-09
2	0	0	0	0	12.2063	0.088182	0.0880747	2.97999e-06	1	4.44796e-06	2.62461e-10
2	0	0	0	0	12.3063	0.0831818	0.0830709	-3.10956e-05	1	4.44649e-06	-2.58314e-09
2	0	0	0	0	12.4063	0.0781817	0.0780692	-7.13835e-05	1	4.44133e-06	-5.57286e-09
2	0	0	0	0	12.5063	0.0731815	0.0731153	-0.000118802	1	4.43175e-06	-8.68627e-09
2	0	0	0	0	12.6063	0.0681813	0.0681051	-0.000174131	1	4.41705e-06	-1.18592e-08
2	0	0	0	0	12.7063	0.0631811	0.0630653	-0.00023787	1	4.39643e-06	-1.50013e-08
2	0	0	0	0	12.8063	0.0581809	0.0580647	-0.000306298	1	4.36923e-06	-1.77851e-08
2	0	0	0	0	12.9063	0.0531807	0.0530895	-0.000376811	1	4.33501e-06	-2.00047e-08
2	0	0	0	0	13.0063	0.0481806	0.0480624	-0.000449009	1	4.29354e-06	-2.15805e-08
2	0	0	0	0	13.1063	0.0431804	0.0430618	-0.000515221	1	4.24515e-06	-2.21863e-08
2	0	0	0	0	13.2063	0.0381802	0.0380813	-0.000570502	1	4.1906e-06	-2.17255e-08
2	0	0	0	0	13.3063	0.03318	0.0331263	-0.000614527	1	4.13099e-06	-2.0357e-08
2	0	0	0	0	13.4063	0.0281798	0.0280441	-0.000641654	1	4.0678e-06	-1.79946e-08
2	0	0	0	0	13.5063	0.0231796	0.0230392	-0.000655363	1	4.00256e-06	-1.50991e-08
2	0	0	0	0	13.6063	0.0181795	0.0180694	-0.000655836	1	3.93681e-06	-1.18505e-08
2	0	0	0	0	13.7063	0.0131793	0.0131303	-0.000640988	1	3.87182e-06	-8.41633e-09
2	0	0	0	0	13.8063	0.00817909	0.00800879	-0.000620173	1	3.80856e-06	-4.96684e-09
2	0	0	0	0	13.9063	0.00317891	0.00306119	-0.000594392	1	3.74767e-06	-1.81955e-09
2	0	0	0	0	14.0063	-0.00182127	-0.00191079	-0.000567289	1	3.68947e-06	1.08397e-09
2	0	0	0	0	14.1063	-0.00682146	-0.00689338	-0.000537435	1	3.63413e-06	3.70474e-09
2	0	0	0	0	14.2063	-0.0118216	-0.0119459	-0.00050924	1	3.58162e-06	6.08334e-09
2	0	0	0	0	14.3063	-0.0168218	-0.0169593	-0.000483544	1	3.53176e-06	8.20055e-09
2	0	0	0	0	14.4063	-0.021822	-0.0219196	-0.000460441	1	3.48439e-06	1.00927e-08
2	0	0	0	0	14.5063	-0.0268222	-0.0269732	-0.00043875	1	3.43928e-06	1.18345e-08
2	0	0	0	0	14.6063	-0.0318224	-0.0319431	-0.000419625	1	3.39623e-06	1.34041e-08
2	0	0	0	0	14.7063	-0.0368226	-0.0369257	-0.000402171	1	3.35502e-06	1.48504e-08
2	0	0	0	0	14.8063	-0.0418228	-0.0419358	-0.000386982	1	3.31545e-06	1.62284e-08
2	0	0	0	0	14.9063	-0.0468229	-0.0469608	-0.000371886	1	3.27738e-06	1.74641e-08
2	0	0	0	0	15.0063	-0.0518231	-0.0519052	-0.000360073	1	3.24065e-06	1.86896e-08
2	0	0	0	0	15.1063	-0.0568233	-0.0569631	-0.000348247	1	3.20509e-06	1.98372e-08
2	0	0	0	0	15.2063	-0.0618235	-0.0619881	-0.000336514	1	3.17065e-06	2.08599e-08
2	0	0	0	0	15.3063	-0.0668237	-0.0669643	-0.000327608	1	3.13719e-06	2.1938e-08
2	0	0	0	0	15.4063	-0.0718239	-0.0719872	-0.000318804	1	3.10465e-06	2.29498e-08
2	0	0	0	0	15.5063	-0.076824	-0.0769327	-0.000311794	1	3.07292e-06	2.39871e-08
2	0	0	0	0	15.6063	-0.0818242	-0.0819184	-0.000304406	1	3.04194e-06	2.49365e-08
2	0	0	0	0	15.7063	-0.0868244	-0.0870272	-0.000297795	1	3.01166e-06	2.59162e-08
2	0	0	0	0	15.8063	-0.0918246	-0.092014	-0.000292125	1	2.98202e-06	2.68796e-08
2	0	0	0	0	15.9063	-0.0968248	-0.0969478	-0.000284769	1	2.95297e-06	2.76078e-08
2	0	0	1	0	16.0065	-0.101825	-0.101929	-0.000280087	1	2.92443e-06	2.85491e-08
2	0	0	1	0	16.1065	-0.106825	-0.106941	-0.000275558	1	2.89645e-06	2.94683e-08
2	0	0	1	0	16.2065	-0.111825	-0.112001	-0.000269955	1	2.86895e-06	3.02351e-08
2	0	0	1	0	16.3065	-0.116826	-0.116906	-0.000266484	1	2.84188e-06	3.11535e-08
2	0	0	1	0	16.4065	-0.121826	-0.122008	-0.000263151	1	2.81523e-06	3.21065e-08
2	0	0	1	0	16.5065	-0.126826	-0.126901	-0.00025869	1	2.78896e-06	3.2828e-08
2	0	0	1	0	16.6065	-0.131826	-0.131952	-0.000255145	1	2.76304e-06	3.36669e-08
2	0	0	1	0	16.7065	-0.136826	-0.136911	-0.000252699	1	2.73746e-06	3.45973e-08
2	0	0	1	0	16.8065	-0.141826	-0.141883	-0.000250811	1	2.71217e-06	3.55858e-08
2	0	0	1	0	16.9065	-0.146827	-0.146962	-0.000246008	1	2.68717e-06	3.61539e-08
2	0	0	1	0	17.0065	-0.151827	-0.151897	-0.000243496	1	2.66243e-06	3.69863e-08
2	0	0	1	0	17.1065	-0.156827	-0.156939	-0.00024168	1	2.63792e-06	3.79291e-08
2	0	0	1	0	17.2065	-0.161827	-0.162001	-0.000240147	1	2.61362e-06	3.89041e-08
2	0	0	1	0	17.3065	-0.166827	-0.166968	-0.000238062	1	2.58948e-06	3.97488e-08
2	0	0	1	0	17.4065	-0.171828	-0.171943	-0.000236201	1	2.56554e-06	4.06131e-08
2	0	0	1	0	17.5065	-0.176828	-0.176961	-0.000236427	1	2.54173e-06	4.18382e-08
2	0	0	1	0	17.6065	-0.181828	-0.181906	-0.000234666	1	2.51805e-06	4.26871e-08
2	0	0	1	0	17.7065	-0.186828	-0.187	-0.000233362	1	2.49446e-06	4.36387e-08
2	0	0	1	0	17.8065	-0.191828	-0.191871	-0.000233147	1	2.47094e-06	4.47341e-08
2	0	0	1	0	17.9065	-0.196829	-0.196927	-0.000232675	1	2.44747e-06	4.582e-08
2	1	0	0	1	17.9959	-0.198729	-0.198749	-0.000130494	1	2.42905e-06	2.59357e-08
2	1	0	0	1	18.0959	-0.193728	-0.193809	-0.000103968	1	2.41774e-06	2.015e-08
2	1	0	0	1	18.1959	-0.188728	-0.188813	-9.09393e-05	1	2.40821e-06	1.71705e-08
2	1	0	0	1	18.2959	-0.183728	-0.183759	-8.13866e-05	1	2.39986e-06	1.49556e-08
2	1	0	0	1	18.3959	-0.178728	-0.17879	-7.25935e-05	1	2.39243e-06	1.2979e-08
2	1	0	0	1	18.4959	-0.173728	-0.173794	-6.5747e-05	1	2.38576e-06	1.14264e-08
2	1	0	0	1	18.5959	-0.168727	-0.168823	-5.97624e-05	1	2.37975e-06	1.00893e-08
2	1	0	0	1	18.6959	-0.163727	-0.163778	-5.45833e-05	1	2.37432e-06	8.93955e-09
2	1	0	0	1	18.7959	-0.158727	-0.158787	-5.01603e-05	1	2.36941e-06	7.9648e-09
2	1	0	0	1	18.8959	-0.153727	-0.153734	-4.57761e-05	1	2.36497e-06	7.03736e-09
2	1	0	0	1	18.9959	-0.148727	-0.148829	-4.1081e-05	1	2.36095e-06	6.11405e-09
2	1	0	0	1	19.0959	-0.143727	-0.143843	-3.78344e-05	1	2.35731e-06	5.44223e-09
2	1	0	0	1	19.1959	-0.138726	-0.138772	-3.4162e-05	1	2.35406e-06	4.74073e-09
2	1	0	0	1	19.2959	-0.133726	-0.133778	-2.90819e-05	1	2.35115e-06	3.8905e-09
2	1	0	0	1	19.3959	-0.128726	-0.128766	-2.5724e-05	1	2.34855e-06	3.31238e-09
2	1	0	0	1	19.4959	-0.123726	-0.123794	-2.38498e-05	1	2.34628e-06	2.95247e-09
2	1	0	0	1	19.5959	-0.118726	-0.118801	-2.07339e-05	1	2.34427e-06	2.46321e-09
2	1	0	0	1	19.6959	-0.113725	-0.113849	-1.80454e-05	1	2.34255e-06	2.05446e-09
2	1	0	0	1	19.7959	-0.108725	-0.108799	-1.63303e-05	1	2.34109e-06	1.77671e-09
2	1	0	0	1	19.8959	-0.103725	-0.103786	-1.47741e-05	1	2.33987e-06	1.53333e-09
2	1	0	1	1	19.9961	-0.0987249	-0.0988581	-1.21439e-05	2	2.33886e-06	1.20052e-09
2	1	0	1	1	20.0961	-0.0937247	-0.0938713	-1.01178e-05	2	2.3381e-06	9.49775e-10
2	1	0	1	1	20.1961	-0.0887245	-0.0888506	-7.27748e-06	2	2.33757e-06	6.46608e-10
2	1	0	1	1	20.2961	-0.0837243	-0.0838277	-5.56937e-06	2	2.33722e-06	4.66868e-10
2	1	0	1	1	20.3961	-0.0787241	-0.0788345	-3.76588e-06	2	2.33708e-06	2.96881e-10
2	1	0	1	1	20.4961	-0.0737239	-0.0738169	-2.3563e-06	2	2.33715e-06	1.73935e-10
2	1	0	1	1	20.5961	-0.0687238	-0.0687517	4.34609e-07	2	2.33741e-06	-2.98801e-11
2	1	0	1	1	20.6961	-0.0637236	-0.0637966	2.47126e-06	2	2.33785e-06	-1.57658e-10
2	1	0	1	1	20.7961	-0.0587234	-0.0588204	4.52735e-06	2	2.33848e-06	-2.663e-10
2	1	0	1	1	20.8961	-0.0537232	-0.0538792	6.133e-06	2	2.3393e-06	-3.30441e-10
2	1	0	1	1	20.9961	-0.048723	-0.048833	9.21713e-06	2	2.34035e-06	-4.501e-10
2	1	0	1	1	21.0961	-0.0437228	-0.0437486	1.09765e-05	2	2.34159e-06	-4.80205e-10
2	1	0	1	1	21.1961	-0.0387226	-0.0388477	1.35819e-05	2	2.34304e-06	-5.27625e-10
2	1	0	1	1	21.2961	-0.0337225	-0.0338545	1.63922e-05	2	2.34474e-06	-5.5495e-10
2	1	0	1	1	21.3961	-0.0287223	-0.028803	1.82452e-05	2	2.3467e-06	-5.25515e-10
2	1	0	1	1	21.4961	-0.0237221	-0.0237759	2.1483e-05	2	2.34899e-06	-5.10776e-10
2	1	0	1	1	21.5961	-0.0187219	-0.0188208	2.59537e-05	2	2.35164e-06	-4.88471e-10
2	1	0	1	1	21.6961	-0.0137217	-0.0137842	3.15002e-05	2	2.35473e-06	-4.34205e-10
2	1	0	1	1	21.7961	-0.00872153	-0.00884189	3.68065e-05	2	2.35838e-06	-3.25439e-10
2	1	0	1	1	21.8961	-0.00372134	-0.00380311	4.42094e-05	2	2.36272e-06	-1.68133e-10
2	1	0	1	1	21.9961	0.00127884	0.00122718	5.49756e-05	2	2.368e-06	6.74649e-11
2	1	0	1	1	22.0961	0.00627903	0.00619916	6.61922e-05	2	2.37435e-06	4.10336e-10
2	1	0	1	1	22.1961	0.0112792	0.0112295	8.30454e-05	2	2.38214e-06	9.32554e-10
2	1	0	1	1	22.2961	0.0162794	0.0161887	0.000103504	2	2.39176e-06	1.67559e-09
2	1	0	1	1	22.3961	0.0212796	0.0211914	0.000129579	2	2.40369e-06	2.74597e-09
2	1	0	1	1	22.4961	0.0262798	0.026244	0.000162155	2	2.41853e-06	4.2556e-09
2	1	0	1	1	22.5961	0.0312799	0.0312584	0.000201396	2	2.43692e-06	6.2953e-09
2	1	0	1	1	22.6961	0.0362801	0.0362484	0.000247398	2	2.4596e-06	8.96777e-09
2	1	0	1	1	22.7961	0.0412803	0.0412649	0.000301549	2	2.48736e-06	1.24434e-08
2	1	0	1	1	22.8961	0.0462805	0.0462432	0.000363537	2	2.52091e-06	1.68111e-08
2	1	0	1	1	22.9961	0.0512807	0.0512438	0.000431027	2	2.56086e-06	2.20875e-08
2	1	0	1	1	23.0961	0.0562809	0.0562285	0.000497071	2	2.60759e-06	2.79496e-08
2	1	0	1	1	23.1961	0.061281	0.0611687	0.000567262	2	2.66114e-06	3.46987e-08
2	1	0	1	1	23.2961	0.0662812	0.0662117	0.000629291	2	2.72126e-06	4.16665e-08
2	1	0	1	1	23.3961	0.0712814	0.0712155	0.000684411	2	2.78727e-06	4.87407e-08
2	1	0	1	1	23.4961	0.0762816	0.076266	0.000728384	2	2.85825e-06	5.55509e-08
2	1	0	1	1	23.5961	0.0812818	0.0812263	0.000759778	2	2.93299e-06	6.1714e-08
2	1	0	1	1	23.6961	0.086282	0.0861781	0.000778327	2	3.01021e-06	6.70748e-08
2	1	0	1	1	23.7961	0.0912821	0.0911914	0.000785274	2	3.0887e-06	7.16103e-08
2	1	0	1	1	23.8961	0.0962823	0.0962292	0.000780475	2	3.16733e-06	7.51045e-08
2	1	0	1	1	23.9961	0.101282	0.101267	0.000770521	2	3.24526e-06	7.80283e-08
2	1	0	1	1	24.0961	0.106283	0.106259	0.000755375	2	3.32178e-06	8.02653e-08
2	1	0	1	1	24.1961	0.111283	0.111185	0.000734301	2	3.39648e-06	8.16436e-08
2	1	0	1	1	24.2961	0.116283	0.11619	0.000712193	2	3.4691e-06	8.27499e-08
2	1	0	1	1	24.3961	0.121283	0.121158	0.00069077	2	3.53951e-06	8.36923e-08
2	1	0	1	1	24.4961	0.126283	0.126209	0.00066821	2	3.6077e-06	8.43344e-08
2	1	0	1	1	24.5961	0.131284	0.131148	0.000648414	2	3.67376e-06	8.50379e-08
2	1	0	1	1	24.6961	0.136284	0.136138	0.000627302	2	3.73776e-06	8.53993e-08
2	1	0	1	1	24.7961	0.141284	0.14117	0.000609682	2	3.79986e-06	8.60688e-08
2	1	0	1	1	24.8961	0.146284	0.146203	0.00059285	2	3.86015e-06	8.66767e-08
2	1	0	1	1	24.9961	0.151284	0.151144	0.000576417	2	3.91881e-06	8.71218e-08
2	1	0	1	1	25.0961	0.156285	0.156199	0.000561	2	3.976e-06	8.76279e-08
2	1	0	1	1	25.1961	0.161285	0.161235	0.000547456	2	4.0318e-06	8.8269e-08
2	1	0	1	1	25.2961	0.166285	0.16625	0.000536504	2	4.08633e-06	8.9194e-08
2	1	0	1	1	25.3961	0.171285	0.171191	0.000525531	2	4.1397e-06	8.9966e-08
2	1	0	0	1	25.4963	0.176285	0.176226	0.0005148	2	4.1921e-06	9.07213e-08
2	1	0	0	1	25.5963	0.181285	0.181204	0.000504737	2	4.24345e-06	9.14606e-08
2	1	0	0	1	25.6963	0.186286	0.186209	0.000497073	2	4.2939e-06	9.25596e-08
2	1	0	0	1	25.7963	0.191286	0.191219	0.000490108	2	4.34356e-06	9.37182e-08
2	1	0	0	1	25.8963	0.196286	0.196129	0.000482221	2	4.39249e-06	9.45775e-08
2	1	0	0	1	25.9963	0.201286	0.201191	0.000475459	2	4.44075e-06	9.56581e-08
2	1	0	0	1	26.0963	0.206286	0.206157	0.000470573	2	4.48844e-06	9.70118e-08
2	1	0	0	1	26.1963	0.211287	0.211203	0.000465776	2	4.53557e-06	9.83732e-08
2	1	0	0	1	26.2963	0.216287	0.216191	0.000461185	2	4.58223e-06	9.97039e-08
2	1	0	0	1	26.3963	0.221287	0.221169	0.000456737	2	4.62846e-06	1.01016e-07
2	1	0	0	1	26.4963	0.226287	0.226187	0.00045287	2	4.6743e-06	1.02433e-07
2	1	0	0	1	26.5963	0.231287	0.231127	0.000450984	2	4.71982e-06	1.04234e-07
2	1	0	0	1	26.6963	0.236287	0.236214	0.000447108	2	4.76504e-06	1.05613e-07
2	1	0	0	1	26.7963	0.241288	0.241153	0.000444584	2	4.81e-06	1.07213e-07
2	1	0	0	1	26.8963	0.246288	0.246172	0.000444726	2	4.85479e-06	1.09479e-07
2	1	0	0	1	26.9963	0.251288	0.251263	0.000441327	2	4.89941e-06	1.10889e-07
2	1	0	0	1	27.0963	0.256288	0.256211	0.000441346	2	4.94395e-06	1.13078e-07
2	1	0	0	1	27.1963	0.261288	0.261136	0.000441186	2	4.98842e-06	1.15209e-07
2	1	0	0	1	27.2963	0.266289	0.266188	0.000441601	2	5.03287e-06	1.17549e-07
2	1	0	0	1	27.3963	0.271289	0.271172	0.000440981	2	5.07737e-06	1.19582e-07
2	1	0	0	1	27.4963	0.276289	0.276224	0.00044259	2	5.12196e-06	1.22254e-07
2	1	0	0	1	27.5963	0.281289	0.281209	0.000444579	2	5.16668e-06	1.2502e-07
2	1	0	0	1	27.6963	0.286289	0.286178	0.000447206	2	5.2116e-06	1.2798e-07
2	1	0	0	1	27.7963	0.291289	0.291176	0.000449179	2	5.25674e-06	1.3079e-07
2	1	0	0	1	27.8963	0.29629	0.296214	0.000453119	2	5.30217e-06	1.3422e-07
2	0	0	0	1	27.9767	0.29969	0.299524	0.000372211	2	5.33837e-06	1.11486e-07
2	0	0	0	1	28.0767	0.29469	0.294585	0.000325277	2	5.37237e-06	9.58215e-08
2	0	0	0	1	28.1767	0.289689	0.289606	0.000300167	2	5.40327e-06	8.69304e-08
2	0	0	0	1	28.2767	0.284689	0.284553	0.000283088	2	5.43217e-06	8.05535e-08
2	0	0	0	1	28.3767	0.279689	0.279588	0.000268144	2	5.4595e-06	7.497e-08
2	0	0	0	1	28.4767	0.274689	0.274585	0.000257064	2	5.48557e-06	7.05857e-08
2	0	0	0	1	28.5767	0.269689	0.269554	0.000247159	2	5.51055e-06	6.66229e-08
2	0	0	0	1	28.6767	0.264688	0.264529	0.000238246	2	5.53459e-06	6.30231e-08
2	0	0	0	1	28.7767	0.259688	0.259564	0.000229806	2	5.55781e-06	5.96494e-08
2	0	0	0	1	28.8767	0.254688	0.254506	0.00022359	2	5.58027e-06	5.69051e-08
2	0	0	0	1	28.9767	0.249688	0.249566	0.000218388	2	5.60207e-06	5.45022e-08
2	0	0	0	1	29.0767	0.244688	0.244539	0.000210491	2	5.62329e-06	5.14733e-08
2	0	0	0	1	29.1767	0.239688	0.23954	0.000205068	2	5.64391e-06	4.9122e-08
2	0	0	0	1	29.2767	0.234687	0.234564	0.000200797	2	5.66403e-06	4.70997e-08
2	0	0	0	1	29.3767	0.229687	0.229541	0.000195786	2	5.68366e-06	4.49408e-08
2	0	0	0	1	29.4767	0.224687	0.224569	0.000192157	2	5.70282e-06	4.31526e-08
2	0	0	0	1	29.5767	0.219687	0.219579	0.000187749	2	5.72155e-06	4.12256e-08
2	0	0	0	1	29.6767	0.214687	0.214554	0.000183061	2	5.73986e-06	3.92763e-08
2	0	0	0	1	29.7767	0.209686	0.209566	0.000178989	2	5.75776e-06	3.751e-08
2	0	0	0	1	29.8767	0.204686	0.204563	0.000174513	2	5.77527e-06	3.56989e-08
2	0	0	0	1	29.9767	0.199686	0.19953	0.000172077	2	5.79238e-06	3.43345e-08
2	0	0	0	1	30.0767	0.194686	0.194589	0.000167546	2	5.80913e-06	3.26026e-08
2	0	0	0	1	30.1767	0.189686	0.189531	0.000163644	2	5.8255e-06	3.10156e-08
2	0	0	0	1	30.2767	0.184686	0.184539	0.000160359	2	5.84151e-06	2.95924e-08
2	0	0	0	1	30.3767	0.179685	0.179574	0.000156948	2	5.85714e-06	2.81838e-08
2	0	0	0	1	30.4767	0.174685	0.174588	0.000153279	2	5.8724e-06	2.67607e-08
2	0	0	1	1	30.5769	0.169685	0.1696	0.000149723	2	5.88733e-06	2.53931e-08
2	0	0	1	1	30.6769	0.164685	0.164552	0.000144869	2	5.90182e-06	2.38385e-08
2	0	0	1	1	30.7769	0.159685	0.15955	0.000140651	2	5.91591e-06	2.24409e-08
2	0	0	1	1	30.8769	0.154684	0.154576	0.00013742	2	5.92959e-06	2.12419e-08
2	0	0	1	1	30.9769	0.149684	0.149481	0.000132588	2	5.9428e-06	1.98194e-08
2	0	0	1	1	31.0769	0.144684	0.144519	0.000125992	2	5.95557e-06	1.82082e-08
2	0	0	1	1	31.1769	0.139684	0.139548	0.000120701	2	5.96784e-06	1.68436e-08
2	0	0	1	1	31.2769	0.134684	0.134543	0.000115726	2	5.97955e-06	1.55701e-08
2	0	0	1	1	31.3769	0.129684	0.129587	0.000109525	2	5.99066e-06	1.41931e-08
2	0	0	1	1	31.4769	0.124683	0.124551	0.000101188	2	6.00107e-06	1.26031e-08
2	0	0	1	1	31.5769	0.119683	0.119597	9.2856e-05	2	6.01071e-06	1.11053e-08
2	0	0	1	1	31.6769	0.114683	0.114575	8.44462e-05	2	6.01943e-06	9.67539e-09
2	0	0	1	1	31.7769	0.109683	0.109591	7.27085e-05	2	6.02709e-06	7.96819e-09
2	0	0	1	1	31.8769	0.104683	0.104521	5.85579e-05	2	6.03346e-06	6.12055e-09
2	0	0	1	1	31.9769	0.0996824	0.0995675	4.03181e-05	2	6.03832e-06	4.01437e-09
2	0	0	1	1	32.0769	0.0946823	0.0946093	2.10061e-05	2	6.04133e-06	1.98737e-09
2	0	0	1	1	32.1769	0.0896821	0.0895525	-3.70759e-06	2	6.04209e-06	-3.32024e-10
2	0	0	1	1	32.2769	0.0846819	0.0846144	-3.48085e-05	2	6.04012e-06	-2.9453e-09
2	0	0	1	1	32.3769	0.0796817	0.079669	-6.96966e-05	2	6.03483e-06	-5.55266e-09
2	0	0	1	1	32.4769	0.0746815	0.0746206	-0.000112002	2	6.02559e-06	-8.35765e-09
2	0	0	1	1	32.5769	0.0696813	0.069567	-0.000163611	2	6.01165e-06	-1.13819e-08
2	0	0	1	1	32.6769	0.0646812	0.0645643	-0.000222062	2	5.99229e-06	-1.43373e-08
2	0	0	1	1	32.7769	0.059681	0.0595425	-0.000286458	2	5.96676e-06	-1.70564e-08
2	0	0	1	1	32.8769	0.0546808	0.0546235	-0.000356303	2	5.93454e-06	-1.94625e-08
2	0	0	1	1	32.9769	0.0496806	0.0495911	-0.000427046	2	5.89528e-06	-2.11777e-08
2	0	0	1	1	33.0769	0.0446804	0.0445481	-0.000495221	2	5.84899e-06	-2.20612e-08
2	0	0	1	1	33.1769	0.0396803	0.0395549	-0.000557086	2	5.79622e-06	-2.20355e-08
2	0	0	1	1	33.2769	0.0346801	0.0345236	-0.000607446	2	5.73781e-06	-2.09712e-08
2	0	0	1	1	33.3769	0.0296799	0.0296014	-0.000642903	2	5.67505e-06	-1.90308e-08
2	0	0	1	1	33.4769	0.0246797	0.0245722	-0.000666323	2	5.60943e-06	-1.6373e-08
2	0	0	1	1	33.5769	0.0196795	0.0195514	-0.000670481	2	5.54243e-06	-1.31089e-08
2	0	0	1	1	33.6769	0.0146793	0.0145657	-0.000662814	2	5.47547e-06	-9.65432e-09
2	0	0	1	1	33.7769	0.00967915	0.00954491	-0.000648319	2	5.40967e-06	-6.18814e-09
2	0	0	1	1	33.8769	0.00467897	0.00456551	-0.000624633	2	5.34588e-06	-2.85177e-09
2	0	0	1	1	33.9769	-0.000321216	-0.000410714	-0.000598587	2	5.28458e-06	2.45848e-10
2	0	0	1	1	34.0769	-0.0053214	-0.00547387	-0.000569901	2	5.22593e-06	3.11956e-09
2	0	0	1	1	34.1769	-0.0103216	-0.0104437	-0.000541886	2	5.17013e-06	5.65932e-09
2	0	0	1	1	34.2769	-0.0153218	-0.0154104	-0.000517535	2	5.11706e-06	7.97543e-09
2	0	0	1	1	34.3769	-0.020322	-0.0204322	-0.000492227	2	5.06654e-06	1.00573e-08
2	0	0	1	1	34.4769	-0.0253221	-0.0254816	-0.000468796	2	5.01837e-06	1.19457e-08
2	0	0	1	1	34.5769	-0.0303223	-0.0304515	-0.000448166	2	4.97235e-06	1.36473e-08
2	0	0	1	1	34.6769	-0.0353225	-0.0354574	-0.000430748	2	4.92827e-06	1.52732e-08
2	0	0	1	1	34.7769	-0.0403227	-0.0404294	-0.000413614	2	4.88594e-06	1.67221e-08
2	0	0	1	1	34.8769	-0.0453229	-0.0454925	-0.000398804	2	4.84518e-06	1.81426e-08
2	0	0	1	1	34.9769	-0.0503231	-0.0504136	-0.000386418	2	4.80583e-06	1.94808e-08
2	0	0	1	1	35.0769	-0.0553233	-0.0555012	-0.000372725	2	4.76772e-06	2.06867e-08
2	0	0	1	1	35.1769	-0.0603234	-0.0604933	-0.000362579	2	4.7308e-06	2.19336e-08
2	0	0	1	1	35.2769	-0.0653236	-0.0654504	-0.000351242	2	4.69492e-06	2.2989e-08
2	0	0	1	1	35.3769	-0.0703238	-0.0704479	-0.000343152	2	4.66e-06	2.41744e-08
2	0	0	1	1	35.4769	-0.075324	-0.07551	-0.000335013	2	4.62597e-06	2.52968e-08
2	0	0	1	1	35.5769	-0.0803242	-0.0804417	-0.000327944	2	4.59272e-06	2.63803e-08
2	0	0	1	1	35.6769	-0.0853244	-0.085491	-0.000319917	2	4.56024e-06	2.73501e-08
2	0	0	1	1	35.7769	-0.0903246	-0.090428	-0.000312431	2	4.52844e-06	2.82525e-08
2	0	0	1	1	35.8769	-0.0953247	-0.0954562	-0.000307711	2	4.49727e-06	2.9373e-08
2	0	0	0	1	35.9771	-0.100325	-0.100461	-0.000301609	2	4.46665e-06	3.02999e-08
2	0	0	0	1	36.0771	-0.105325	-0.105417	-0.000295976	2	4.43661e-06	3.12009e-08
2	0	0	0	1	36.1771	-0.110325	-0.110432	-0.000291667	2	4.40711e-06	3.22093e-08
2	0	0	0	1	36.2771	-0.115325	-0.115426	-0.000287684	2	4.37808e-06	3.32062e-08
2	0	0	0	1	36.3771	-0.120326	-0.120441	-0.000282968	2	4.3495e-06	3.4081e-08
2	0	0	0	1	36.4771	-0.125326	-0.125429	-0.000278974	2	4.32133e-06	3.49915e-08
2	0	0	0	1	36.5771	-0.130326	-0.130448	-0.000275279	2	4.29356e-06	3.59095e-08
2	0	0	0	1	36.6771	-0.135326	-0.135449	-0.000270875	2	4.26617e-06	3.66899e-08
2	0	0	0	1	36.7771	-0.140326	-0.140469	-0.000267015	2	4.23912e-06	3.75074e-08
2	0	0	0	1	36.8771	-0.145327	-0.145456	-0.000263794	2	4.21236e-06	3.83703e-08
2	0	0	0	1	36.9771	-0.150327	-0.150404	-0.000261771	2	4.1859e-06	3.93713e-08
2	0	0	0	1	37.0771	-0.155327	-0.155436	-0.000258945	2	4.15969e-06	4.02493e-08
2	0	0	0	1	37.1771	-0.160327	-0.160409	-0.000256954	2	4.13374e-06	4.12177e-08
2	0	0	0	1	37.2771	-0.165327	-0.165451	-0.000253656	2	4.10802e-06	4.19677e-08
2	0	0	0	1	37.3771	-0.170327	-0.170432	-0.000251669	2	4.08246e-06	4.28926e-08
2	0	0	0	1	37.4771	-0.175328	-0.175456	-0.000252999	2	4.0571e-06	4.43903e-08
2	0	0	0	1	37.5771	-0.180328	-0.180443	-0.000252699	2	4.03188e-06	4.55978e-08
2	0	0	0	1	37.6771	-0.185328	-0.185447	-0.000249003	2	4.00676e-06	4.6177e-08
2	0	0	0	1	37.7771	-0.190328	-0.19047	-0.000248014	2	3.98175e-06	4.72392e-08
2	0	0	0	1	37.8771	-0.195328	-0.195429	-0.000248459	2	3.9568e-06	4.85562e-08
2	1	0	0	0	37.971	-0.200004	-0.200204	-0.000222463	2	3.93344e-06	4.4538e-08
2	1	0	1	0	38.0665	-0.195228	-0.195318	-0.000121102	2	3.92066e-06	2.36534e-08
2	1	0	1	0	38.1665	-0.190228	-0.190271	-0.000106651	2	3.90947e-06	2.02926e-08
2	1	0	1	0	38.2665	-0.185228	-0.1853	-9.52175e-05	2	3.89954e-06	1.76438e-08
2	1	0	1	0	38.3665	-0.180228	-0.1803	-8.62389e-05	2	3.89058e-06	1.55489e-08
2	1	0	1	0	38.4665	-0.175228	-0.175325	-7.90744e-05	2	3.88244e-06	1.38637e-08
2	1	0	1	0	38.5665	-0.170228	-0.170313	-7.39201e-05	2	3.87496e-06	1.25895e-08
2	1	0	1	0	38.6665	-0.165227	-0.165276	-6.8423e-05	2	3.86811e-06	1.13087e-08
2	1	0	1	0	38.7665	-0.160227	-0.160327	-6.14988e-05	2	3.86177e-06	9.85994e-09
2	1	0	1	0	38.8665	-0.155227	-0.155318	-5.83352e-05	2	3.85593e-06	9.06052e-09
2	1	0	1	0	38.9665	-0.150227	-0.150294	-5.44685e-05	2	3.85056e-06	8.18631e-09
2	1	0	1	0	39.0665	-0.145227	-0.145318	-5.08032e-05	2	3.84558e-06	7.38263e-09
2	1	0	1	0	39.1665	-0.140226	-0.140275	-4.60145e-05	2	3.84098e-06	6.45469e-09
2	1	0	1	0	39.2665	-0.135226	-0.135282	-4.14201e-05	2	3.83674e-06	5.6034e-09
2	1	0	1	0	39.3665	-0.130226	-0.130361	-4.06659e-05	2	3.83284e-06	5.30124e-09
2	1	0	1	0	39.4665	-0.125226	-0.125268	-3.71667e-05	2	3.82925e-06	4.65579e-09
2	1	0	1	0	39.5665	-0.120226	-0.120276	-3.389e-05	2	3.82598e-06	4.07615e-09
2	1	0	1	0	39.6665	-0.115225	-0.11531	-3.09454e-05	2	3.823e-06	3.56832e-09
2	1	0	1	0	39.7665	-0.110225	-0.110291	-2.74886e-05	2	3.82029e-06	3.03173e-09
2	1	0	1	0	39.8665	-0.105225	-0.105334	-2.4279e-05	2	3.81783e-06	2.55742e-09
2	1	0	1	0	39.9665	-0.100225	-0.100334	-2.32227e-05	2	3.81564e-06	2.33003e-09
2	1	0	0	0	40.0667	-0.0952247	-0.0953746	-2.05042e-05	3	3.81366e-06	1.95558e-09
2	1	0	0	0	40.1667	-0.0902245	-0.09034	-1.80808e-05	3	3.81194e-06	1.63342e-09
2	1	0	0	0	40.2667	-0.0852244	-0.0852546	-1.53004e-05	3	3.81044e-06	1.30443e-09
2	1	0	0	0	40.3667	-0.0802242	-0.0802837	-1.44596e-05	3	3.80914e-06	1.16087e-09
2	1	0	0	0	40.4667	-0.075224	-0.0753573	-1.19213e-05	3	3.80805e-06	8.98359e-10
2	1	0	0	0	40.5667	-0.0702238	-0.0703312	-1.08315e-05	3	3.80716e-06	7.6179e-10
2	1	0	0	0	40.6667	-0.0652236	-0.0653465	-9.17812e-06	3	3.80647e-06	5.99758e-10
2	1	0	0	0	40.7667	-0.0602234	-0.0603205	-4.7215e-06	3	3.80597e-06	2.84803e-10
2	1	0	0	0	40.8667	-0.0552232	-0.0553231	-4.95113e-06	3	3.80568e-06	2.73912e-10
2	1	0	0	0	40.9667	-0.0502231	-0.0503458	-3.06286e-06	3	3.80561e-06	1.54202e-10
2	1	0	0	0	41.0667	-0.0452229	-0.0452858	-4.53888e-07	3	3.80573e-06	2.05547e-11
2	1	0	0	0	41.1667	-0.0402227	-0.0403318	1.89542e-06	3	3.80606e-06	-7.64457e-11
2	1	0	0	0	41.2667	-0.0352225	-0.0353312	3.90558e-06	3	3.80665e-06	-1.37989e-10
2	1	0	0	0	41.3667	-0.0302223	-0.0302925	7.40127e-06	3	3.80751e-06	-2.24203e-10
2	1	0	0	0	41.4667	-0.0252221	-0.0253109	1.07256e-05	3	3.80868e-06	-2.71476e-10
2	1	0	0	0	41.5667	-0.020222	-0.0203273	1.55108e-05	3	3.81021e-06	-3.15292e-10
2	1	0	0	0	41.6667	-0.0152218	-0.0153627	1.89482e-05	3	3.81216e-06	-2.91096e-10
2	1	0	0	0	41.7667	-0.0102216	-0.0103123	2.49981e-05	3	3.81465e-06	-2.57787e-10
2	1	0	0	0	41.8667	-0.0052214	-0.00539012	3.3143e-05	3	3.81778e-06	-1.78645e-10
2	1	0	0	0	41.9667	-0.000221212	-0.000251695	4.12931e-05	3	3.82181e-06	-1.03933e-11
2	1	0	0	0	42.0667	0.00477897	0.00468318	5.26387e-05	3	3.82687e-06	2.46517e-10
2	1	0	0	0	42.1667	0.00977915	0.00969439	6.84373e-05	3	3.83325e-06	6.63458e-10
2	1	0	0	0	42.2667	0.0147793	0.0147332	8.77564e-05	3	3.84134e-06	1.29293e-09
2	1	0	0	0	42.3667	0.0197795	0.0196818	0.000112232	3	3.85152e-06	2.20892e-09
2	1	0	0	0	42.4667	0.0247797	0.0246623	0.000140913	3	3.86437e-06	3.47523e-09
2	1	0	0	0	42.5667	0.0297799	0.0296735	0.000176693	3	3.88051e-06	5.24309e-09
2	1	0	0	0	42.6667	0.0347801	0.0347006	0.000219703	3	3.90058e-06	7.62381e-09
2	1	0	0	0	42.7667	0.0397803	0.0396694	0.000270389	3	3.92535e-06	1.07262e-08
2	1	0	0	0	42.8667	0.0447804	0.0447241	0.000326257	3	3.95547e-06	1.45915e-08
2	1	0	0	0	42.9667	0.0497806	0.0497332	0.000390089	3	3.99161e-06	1.94004e-08
2	1	0	0	0	43.0667	0.0547808	0.0547168	0.000456117	3	4.03433e-06	2.49573e-08
2	1	0	0	0	43.1667	0.059781	0.0597195	0.000523698	3	4.08356e-06	3.1275e-08
2	1	0	0	0	43.2667	0.0647812	0.0647647	0.000586767	3	4.13923e-06	3.80018e-08
2	1	0	0	0	43.3667	0.0697813	0.0696815	0.00064179	3	4.20099e-06	4.47209e-08
2	1	0	0	0	43.4667	0.0747815	0.0746874	0.000688935	3	4.26797e-06	5.14548e-08
2	1	0	0	0	43.5667	0.0797817	0.0797516	0.000726256	3	4.33916e-06	5.79201e-08
2	1	0	0	0	43.6667	0.0847819	0.0847236	0.000749856	3	4.41333e-06	6.35305e-08
2	1	0	0	0	43.7667	0.0897821	0.0896861	0.000761295	3	4.48928e-06	6.82776e-08
2	1	0	0	0	43.8667	0.0947823	0.0946527	0.000762703	3	4.56588e-06	7.2192e-08
2	1	0	0	0	43.9667	0.0997824	0.0997371	0.000756489	3	4.64217e-06	7.545e-08
2	1	0	0	0	44.0667	0.104783	0.104739	0.00074098	3	4.71739e-06	7.76094e-08
2	1	0	0	0	44.1667	0.109783	0.109666	0.000723927	3	4.79103e-06	7.93904e-08
2	1	0	0	0	44.2667	0.114783	0.11472	0.000703859	3	4.86273e-06	8.07466e-08
2	1	0	0	0	44.3667	0.119783	0.119666	0.000682546	3	4.93231e-06	8.16778e-08
2	1	0	0	0	44.4667	0.124783	0.124744	0.00066187	3	4.9997e-06	8.25646e-08
2	1	0	0	0	44.5667	0.129784	0.129677	0.000639015	3	5.06497e-06	8.28656e-08
2	1	0	0	0	44.6667	0.134784	0.134646	0.00061832	3	5.12812e-06	8.32543e-08
2	1	0	0	0	44.7667	0.139784	0.139651	0.00060023	3	5.18933e-06	8.38226e-08
2	1	0	0	0	44.8667	0.144784	0.144699	0.000582971	3	5.24869e-06	8.43553e-08
2	1	0	0	0	44.9667	0.149784	0.149674	0.000565367	3	5.30634e-06	8.46209e-08
2	1	0	0	0	45.0667	0.154784	0.154702	0.000550916	3	5.36246e-06	8.5228e-08
2	1	0	0	0	45.1667	0.159785	0.159662	0.000537362	3	5.41711e-06	8.57962e-08
2	1	0	0	0	45.2667	0.164785	0.164711	0.000523851	3	5.47044e-06	8.62841e-08
2	1	0	0	0	45.3667	0.169785	0.169674	0.000512082	3	5.52254e-06	8.68867e-08
2	1	0	1	0	45.4669	0.174785	0.17463	0.000501623	3	5.57362e-06	8.75982e-08
2	1	0	1	0	45.5669	0.179785	0.179726	0.00049225	3	5.62357e-06	8.847e-08
2	1	0	1	0	45.6669	0.184786	0.184704	0.000483454	3	5.67258e-06	8.92958e-08
2	1	0	1	0	45.7669	0.189786	0.189702	0.000473989	3	5.72073e-06	8.9917e-08
2	1	0	1	0	45.8669	0.194786	0.194702	0.000467138	3	5.7681e-06	9.09526e-08
2	1	0	1	0	45.9669	0.199786	0.199645	0.000461153	3	5.81475e-06	9.20671e-08
2	1	0	1	0	46.0669	0.204786	0.204768	0.000454391	3	5.86075e-06	9.30447e-08
2	1	0	1	0	46.1669	0.209786	0.209684	0.000448654	3	5.90613e-06	9.40754e-08
2	1	0	1	0	46.2669	0.214787	0.214675	0.000442482	3	5.95098e-06	9.49898e-08
2	1	0	1	0	46.3669	0.219787	0.219681	0.000437185	3	5.99533e-06	9.6041e-08
2	1	0	1	0	46.4669	0.224787	0.224672	0.00043545	3	6.03923e-06	9.78333e-08
2	1	0	1	0	46.5669	0.229787	0.229644	0.000429331	3	6.08271e-06	9.85933e-08
2	1	0	1	0	46.6669	0.234787	0.234693	0.000427613	3	6.12582e-06	1.00358e-07
2	1	0	1	0	46.7669	0.239788	0.239648	0.000423485	3	6.1686e-06	1.01487e-07
2	1	0	1	0	46.8669	0.244788	0.244747	0.000420946	3	6.2111e-06	1.03025e-07
2	1	0	1	0	46.9669	0.249788	0.249648	0.000417952	3	6.25334e-06	1.04341e-07
2	1	0	1	0	47.0669	0.254788	0.254653	0.000416094	3	6.29538e-06	1.0596e-07
2	1	0	1	0	47.1669	0.259788	0.259657	0.000415785	3	6.33731e-06	1.07961e-07
2	1	0	1	0	47.2669	0.264788	0.264754	0.000414538	3	6.37912e-06	1.09751e-07
2	1	0	1	0	47.3669	0.269789	0.269699	0.000413637	3	6.42086e-06	1.11558e-07
2	1	0	1	0	47.4669	0.274789	0.274679	0.000413927	3	6.46258e-06	1.13697e-07
2	1	0	1	0	47.5669	0.279789	0.279691	0.000415546	3	6.50434e-06	1.16225e-07
2	1	0	1	0	47.6669	0.284789	0.284695	0.000414944	3	6.54621e-06	1.18132e-07
2	1	0	1	0	47.7669	0.289789	0.289664	0.000417472	3	6.58821e-06	1.20926e-07
2	1	0	1	0	47.8669	0.29479	0.294698	0.000420226	3	6.6304e-06	1.2384e-07
2	1	0	1	0	47.9664	0.299765	0.299614	0.00042198	3	6.67262e-06	1.26431e-07
2	0	0	1	0	48.0473	0.29619	0.296086	0.000304809	3	6.69885e-06	9.02497e-08
2	0	0	1	0	48.1473	0.291189	0.291042	0.000281376	3	6.72789e-06	8.18923e-08
2	0	0	1	0	48.2473	0.286189	0.286026	0.000263534	3	6.75501e-06	7.53777e-08
2	0	0	1	0	48.3473	0.281189	0.281092	0.000252914	3	6.78068e-06	7.10921e-08
2	0	0	1	0	48.4473	0.276189	0.276059	0.000242505	3	6.80517e-06	6.69457e-08
2	0	0	1	0	48.5473	0.271189	0.271036	0.000232472	3	6.82868e-06	6.30083e-08
2	0	0	1	0	48.6473	0.266189	0.266036	0.000223152	3	6.85132e-06	5.93665e-08
2	0	0	1	0	48.7473	0.261188	0.261055	0.000217609	3	6.87321e-06	5.68081e-08
2	0	0	1	0	48.8473	0.256188	0.25611	0.00021269	3	6.89443e-06	5.4472e-08
2	0	0	1	0	48.9473	0.251188	0.251023	0.000206038	3	6.91501e-06	5.17203e-08
2	0	0	1	0	49.0473	0.246188	0.246053	0.000200373	3	6.93504e-06	4.93024e-08
2	0	0	1	0	49.1473	0.241188	0.241086	0.000194597	3	6.95457e-06	4.69145e-08
2	0	0	1	0	49.2473	0.236187	0.236091	0.000190748	3	6.97361e-06	4.50339e-08
2	0	0	1	0	49.3473	0.231187	0.23103	0.000185583	3	6.9922e-06	4.28753e-08
2	0	0	1	0	49.4473	0.226187	0.226035	0.000182221	3	7.01034e-06	4.11884e-08
2	0	0	1	0	49.5473	0.221187	0.221073	0.000177318	3	7.02808e-06	3.92001e-08
2	0	0	1	0	49.6473	0.216187	0.216024	0.000173506	3	7.04542e-06	3.74815e-08
2	0	0	1	0	49.7473	0.211187	0.211043	0.000170268	3	7.06239e-06	3.59339e-08
2	0	0	1	0	49.8473	0.206186	0.206022	0.000165485	3	7.07899e-06	3.40935e-08
2	0	0	1	0	49.9473	0.201186	0.201036	0.000161906	3	7.09521e-06	3.2549e-08
2	0	0	1	0	50.0473	0.196186	0.196054	0.000159059	3	7.11109e-06	3.1184e-08
2	0	0	1	0	50.1473	0.191186	0.191071	0.000154245	3	7.12661e-06	2.94718e-08
2	0	0	1	0	50.2473	0.186186	0.186061	0.000151122	3	7.14177e-06	2.8118e-08
2	0	0	1	0	50.3473	0.181185	0.181086	0.000148552	3	7.1566e-06	2.69007e-08
2	0	0	1	0	50.4473	0.176185	0.175983	0.000144839	3	7.17104e-06	2.54893e-08
2	0	0	0	0	50.5475	0.171185	0.171065	0.000140881	3	7.18519e-06	2.40998e-08
2	0	0	0	0	50.6475	0.166185	0.16608	0.000137768	3	7.19892e-06	2.28805e-08
2	0	0	0	0	50.7475	0.161185	0.161046	0.000134783	3	7.21227e-06	2.17063e-08
2	0	0	0	0	50.8475	0.156185	0.156073	0.000129129	3	7.22523e-06	2.01536e-08
2	0	0	0	0	50.9475	0.151184	0.151052	0.000126638	3	7.23774e-06	1.9129e-08
2	0	0	0	0	51.0475	0.146184	0.146015	0.000120237	3	7.24984e-06	1.75564e-08
2	0	0	0	0	51.1475	0.141184	0.141066	0.000116134	3	7.26146e-06	1.63825e-08
2	0	0	0	0	51.2475	0.136184	0.136063	0.000110635	3	7.27255e-06	1.50533e-08
2	0	0	0	0	51.3475	0.131184	0.130992	0.000105131	3	7.28308e-06	1.37712e-08
2	0	0	0	0	51.4475	0.126183	0.126031	9.77365e-05	3	7.29296e-06	1.23179e-08
2	0	0	0	0	51.5475	0.121183	0.121075	9.11938e-05	3	7.30211e-06	1.10413e-08
2	0	0	0	0	51.6475	0.116183	0.116029	8.15086e-05	3	7.31042e-06	9.45738e-09
2	0	0	0	0	51.7475	0.111183	0.111026	7.05252e-05	3	7.31772e-06	7.83016e-09
2	0	0	0	0	51.8475	0.106183	0.106047	5.62421e-05	3	7.32385e-06	5.96431e-09
2	0	0	0	0	51.9475	0.101182	0.101092	4.11783e-05	3	7.32859e-06	4.16279e-09
2	0	0	0	0	52.0475	0.0961823	0.0961147	2.38411e-05	3	7.33163e-06	2.29148e-09
2	0	0	0	0	52.1475	0.0911821	0.0910664	-6.1993e-07	3	7.33262e-06	-5.64548e-11
2	0	0	0	0	52.2475	0.0861819	0.0860297	-2.75787e-05	3	7.33107e-06	-2.37258e-09
2	0	0	0	0	52.3475	0.0811818	0.0810185	-5.9637e-05	3	7.32653e-06	-4.8317e-09
2	0	0	0	0	52.4475	0.0761816	0.0760804	-9.9637e-05	3	7.31832e-06	-7.58043e-09
2	0	0	0	0	52.5475	0.0711814	0.0710756	-0.00014904	3	7.30576e-06	-1.05931e-08
2	0	0	0	0	52.6475	0.0661812	0.0660909	-0.000201245	3	7.28813e-06	-1.33005e-08
2	0	0	0	0	52.7475	0.061181	0.061103	-0.000262679	3	7.26472e-06	-1.60505e-08
2	0	0	0	0	52.8475	0.0561808	0.0560897	-0.000329	3	7.23492e-06	-1.84535e-08
2	0	0	0	0	52.9475	0.0511807	0.0510944	-0.000399154	3	7.19829e-06	-2.03945e-08
2	0	0	0	0	53.0475	0.0461805	0.0461065	-0.00046769	3	7.15464e-06	-2.15636e-08
2	0	0	0	0	53.1475	0.0411803	0.0410688	-0.000531498	3	7.10433e-06	-2.1828e-08
2	0	0	0	0	53.2475	0.0361801	0.0361074	-0.000586592	3	7.04804e-06	-2.11803e-08
2	0	0	0	0	53.3475	0.0311799	0.0311047	-0.000630165	3	6.98687e-06	-1.96011e-08
2	0	0	0	0	53.4475	0.0261798	0.0261125	-0.00065688	3	6.92219e-06	-1.71528e-08
2	0	0	0	0	53.5475	0.0211796	0.0210557	-0.000668348	3	6.85547e-06	-1.40726e-08
2	0	0	0	0	53.6475	0.0161794	0.0160604	-0.000668798	3	6.78818e-06	-1.07412e-08
2	0	0	0	0	53.7475	0.0111792	0.0110969	-0.00065711	3	6.72156e-06	-7.29191e-09
2	0	0	0	0	53.8475	0.00617902	0.00611011	-0.00063692	3	6.65657e-06	-3.89165e-09
2	0	0	0	0	53.9475	0.00117884	0.00112117	-0.000612014	3	6.59383e-06	-6.86169e-10
2	0	0	0	0	54.0475	-0.00382135	-0.00401408	-0.000585906	3	6.53362e-06	2.35187e-09
2	0	0	0	0	54.1475	-0.00882153	-0.00898288	-0.000558753	3	6.47621e-06	5.01922e-09
2	0	0	0	0	54.2475	-0.0138217	-0.0139421	-0.000531878	3	6.42153e-06	7.41552e-09
2	0	0	0	0	54.3475	-0.0188219	-0.0189565	-0.000505928	3	6.36944e-06	9.59063e-09
2	0	0	0	0	54.4475	-0.0238221	-0.0239518	-0.0004841	3	6.31978e-06	1.15951e-08
2	0	0	0	0	54.5475	-0.0288223	-0.0289896	-0.000463121	3	6.27231e-06	1.34257e-08
2	0	0	0	0	54.6475	-0.0338225	-0.0339743	-0.000443782	3	6.22686e-06	1.50772e-08
2	0	0	0	0	54.7475	-0.0388226	-0.0389505	-0.000425675	3	6.18322e-06	1.65802e-08
2	0	0	0	0	54.8475	-0.0438228	-0.0439172	-0.000409376	3	6.14121e-06	1.79787e-08
2	0	0	0	0	54.9475	-0.048823	-0.0489241	-0.000396015	3	6.10066e-06	1.93747e-08
2	0	0	0	0	55.0475	-0.0538232	-0.053965	-0.000385534	3	6.0614e-06	2.08053e-08
2	0	0	0	0	55.1475	-0.0588234	-0.0589826	-0.00037275	3	6.02338e-06	2.19858e-08
2	0	0	0	0	55.2475	-0.0638236	-0.0638804	-0.000363427	3	5.98643e-06	2.32159e-08
2	0	0	0	0	55.3475	-0.0688238	-0.0690008	-0.00035333	3	5.95046e-06	2.43801e-08
2	0	0	0	0	55.4475	-0.0738239	-0.0739516	-0.000344371	3	5.9154e-06	2.54668e-08
2	0	0	0	0	55.5475	-0.0788241	-0.0789172	-0.000337283	3	5.88118e-06	2.66174e-08
2	0	0	0	0	55.6475	-0.0838243	-0.0839411	-0.000327878	3	5.84772e-06	2.75225e-08
2	0	0	0	0	55.7475	-0.0888245	-0.0889799	-0.000323083	3	5.81498e-06	2.87479e-08
2	0	0	0	0	55.8475	-0.0938247	-0.0939667	-0.000314954	3	5.7829e-06	2.95952e-08
2	0	0	0	0	55.9475	-0.0988249	-0.0989832	-0.000308996	3	5.75142e-06	3.05854e-08
2	0	0	1	0	56.0477	-0.103825	-0.103905	-0.000304034	3	5.72049e-06	3.15907e-08
2	0	0	1	0	56.1477	-0.108825	-0.10894	-0.00029856	3	5.69013e-06	3.25251e-08
2	0	0	1	0	56.2477	-0.113825	-0.113959	-0.000295532	3	5.66028e-06	3.36784e-08
2	0	0	1	0	56.3477	-0.118826	-0.118961	-0.000288744	3	5.63088e-06	3.43493e-08
2	0	0	1	0	56.4477	-0.123826	-0.123924	-0.000285261	3	5.60194e-06	3.53505e-08
2	0	0	1	0	56.5477	-0.128826	-0.12894	-0.000282251	3	5.57341e-06	3.63935e-08
2	0	0	1	0	56.6477	-0.133826	-0.133927	-0.000278501	3	5.54526e-06	3.72988e-08
2	0	0	1	0	56.7477	-0.138826	-0.138958	-0.000274164	3	5.51749e-06	3.80974e-08
2	0	0	1	0	56.8477	-0.143827	-0.143907	-0.000270448	3	5.49002e-06	3.89193e-08
2	0	0	1	0	56.9477	-0.148827	-0.148959	-0.000268437	3	5.46289e-06	3.99861e-08
2	0	0	1	0	57.0477	-0.153827	-0.153904	-0.00026536	3	5.43604e-06	4.084e-08
2	0	0	1	0	57.1477	-0.158827	-0.158909	-0.000263643	3	5.40942e-06	4.18953e-08
2	0	0	1	0	57.2477	-0.163827	-0.163906	-0.000260582	3	5.38306e-06	4.27111e-08
2	0	0	1	0	57.3477	-0.168827	-0.168958	-0.000258793	3	5.3569e-06	4.37251e-08
2	0	0	1	0	57.4477	-0.173828	-0.173891	-0.000256392	3	5.33094e-06	4.45842e-08
2	0	0	1	0	57.5477	-0.178828	-0.178952	-0.000255666	3	5.30515e-06	4.57519e-08
2	0	0	1	0	57.6477	-0.183828	-0.183946	-0.0002544	3	5.27948e-06	4.67958e-08
2	0	0	1	0	57.7477	-0.188828	-0.188926	-0.0002539	3	5.25392e-06	4.79684e-08
2	0	0	1	0	57.8477	-0.193828	-0.193953	-0.000252692	3	5.22845e-06	4.90104e-08
2	0	0	1	0	57.9477	-0.198829	-0.19889	-0.000252934	3	5.20304e-06	5.03061e-08
2	1	0	0	1	58.0371	-0.196728	-0.1968	-0.00013393	3	5.18769e-06	2.63574e-08
2	1	0	0	1	58.1371	-0.191728	-0.191824	-0.00011607	3	5.17564e-06	2.22649e-08
2	1	0	0	1	58.2371	-0.186728	-0.186869	-0.00010456	3	5.16501e-06	1.9539e-08
2	1	0	0	1	58.3371	-0.181728	-0.181825	-9.42901e-05	3	5.15541e-06	1.71443e-08
2	1	0	0	1	58.4371	-0.176728	-0.176835	-8.79647e-05	3	5.14665e-06	1.55552e-08
2	1	0	0	1	58.5371	-0.171728	-0.171811	-8.12224e-05	3	5.13859e-06	1.39549e-08
2	1	0	0	1	58.6371	-0.166727	-0.166839	-7.49976e-05	3	5.13116e-06	1.25125e-08
2	1	0	0	1	58.7371	-0.161727	-0.161802	-6.91296e-05	3	5.12427e-06	1.11853e-08
2	1	0	0	1	58.8371	-0.156727	-0.156784	-6.48567e-05	3	5.11787e-06	1.01685e-08
2	1	0	0	1	58.9371	-0.151727	-0.151817	-6.04425e-05	3	5.11197e-06	9.17617e-09
2	1	0	0	1	59.0371	-0.146727	-0.146831	-5.53605e-05	3	5.10645e-06	8.12864e-09
2	1	0	0	1	59.1371	-0.141726	-0.141764	-5.16882e-05	3	5.10133e-06	7.3275e-09
2	1	0	0	1	59.2371	-0.136726	-0.136758	-4.83444e-05	3	5.09658e-06	6.61147e-09
2	1	0	0	1	59.3371	-0.131726	-0.131809	-4.65303e-05	3	5.09216e-06	6.13311e-09
2	1	0	0	1	59.4371	-0.126726	-0.126785	-4.26089e-05	3	5.0881e-06	5.40217e-09
2	1	0	0	1	59.5371	-0.121726	-0.121828	-3.92492e-05	3	5.08432e-06	4.78165e-09
2	1	0	0	1	59.6371	-0.116726	-0.116841	-3.64053e-05	3	5.08085e-06	4.25364e-09
2	1	0	0	1	59.7371	-0.111725	-0.11175	-3.41744e-05	3	5.07767e-06	3.819e-09
2	1	0	0	1	59.8371	-0.106725	-0.106832	-3.16802e-05	3	5.07476e-06	3.38448e-09
2	1	0	0	1	59.9371	-0.101725	-0.101781	-2.76405e-05	3	5.0721e-06	2.81327e-09
2	1	0	1	1	60.0373	-0.0967248	-0.0968163	-2.49944e-05	3	5.06965e-06	2.41987e-09
2	1	0	1	1	60.1373	-0.0917246	-0.0918475	-2.38922e-05	3	5.06745e-06	2.19444e-09
2	1	0	1	1	60.2373	-0.0867244	-0.0867855	-1.95027e-05	3	5.0655e-06	1.69255e-09
2	1	0	1	1	60.3373	-0.0817242	-0.0818262	-1.89587e-05	3	5.06375e-06	1.55131e-09
2	1	0	1	1	60.4373	-0.076724	-0.0767789	-1.67701e-05	3	5.06222e-06	1.28759e-09
2	1	0	1	1	60.5373	-0.0717239	-0.071861	-1.53676e-05	3	5.06088e-06	1.10433e-09
2	1	0	1	1	60.6373	-0.0667237	-0.0668625	-1.25908e-05	3	5.05974e-06	8.41852e-10
2	1	0	1	1	60.7373	-0.0617235	-0.0618513	-1.14656e-05	3	5.05881e-06	7.09162e-10
2	1	0	1	1	60.7784	-0.0596484	-0.059854	-1.2004e-07	3	5.05848e-06	7.18487e-12