File: AutoAnalysis Examples/EC/C000A-5ppb-B_C01.mpt
EC-Lab ASCII FILE
Nb header lines : 59

Cyclic Voltammetry

Run on channel : 1 (SN 22398)
User :
CE vs. WE compliance from -10 V to 10 V
Electrode connection : standard
Ewe ctrl range : min = -1.00 V, max = 1.00 V
Safety Limits :
	Ewe min = -2.00 V
	Ewe max = 2.00 V
	|I| = 50.000 mA
	for t > 10 ms
Acquisition started on : 11/21/2018 11:38:33
Technique started on : 11/21/2018 11:38:33
Saved on :
	File : C000A-5ppb-B_C01.mpr
	Directory : \\ECCOMPUTER\Users\Lab User\Google Drive\Electrochemical Data\EC-Lab\Data\FREDsense\Tim\2018.11.21 - EC comparison to High Throughput\
	Host : 172.16.1.30
Device : SP-50 (SN 0301030103010301)
Address : USB
EC-Lab for windows v11.02 (software)
Internet server v11.02 (firmware)
Command interpretor v11.02 (firmware)
Electrode material : Au/Pd
Initial state :
Electrolyte : NaCl (0.2M)
Comments : Fe(CN)63-/Fe(CN)64- 5.10-3 M
Reference electrode : SCE Saturated Calomel Electrode (0.241 V)
Electrode surface area : 0.001 cm²
Characteristic mass : 0.001 g
Equivalent Weight : 0.000 g/eq.
Density : 0.000 g/cm3
Cycle Definition : Charge/Discharge alternance
Ei (V)              -0.100
vs.                 Ref
dE/dt               50.000
dE/dt unit          mV/s
E1 (V)              0.300
vs.                 Ref
Step percent        50
N                   10
E range min (V)     -1.000
E range max (V)     1.000
I Range             Auto
I Range min         Unset
I Range max         Unset
I Range init        Unset
Bandwidth           5
E2 (V)              -0.200
vs.                 Ref
nc cycles           2
Reverse Scan        1
Ef (V)              0.000
vs.                 Eoc

mode	ox/red	error	control changes	counter inc.	time/s	control/V	Ewe/V	<I>/mA	cycle number	(Q-Qo)/C	P/W
2	1	0	1	0	0.000000000000000E+000	-0.0984851	-0.0987775	-0.000107391	1	0.0000000E+000	1.06078e-08
2	1	0	0	0	0.111	-0.0929349	-0.0931998	-5.38704e-06	1	1.34224e-10	5.02071e-10
2	1	0	1	0	0.2265	-0.0871597	-0.0874098	2.97126e-05	1	4.20403e-09	-2.59717e-09
2	1	0	1	0	0.3265	-0.0821595	-0.0823297	3.66263e-05	1	7.84915e-09	-3.01543e-09
2	1	0	1	0	0.4265	-0.0771593	-0.0773927	4.17824e-05	1	1.2052e-08	-3.23365e-09
2	1	0	1	0	0.5265	-0.0721591	-0.0723635	4.43914e-05	1	1.66562e-08	-3.21231e-09
2	1	0	1	0	0.6265	-0.0671589	-0.0673586	4.72847e-05	1	2.15245e-08	-3.18503e-09
2	1	0	1	0	0.7265	-0.0621587	-0.0623569	4.87084e-05	1	2.66749e-08	-3.03731e-09
2	1	0	1	0	0.8265	-0.0571585	-0.0573818	5.22359e-05	1	3.20361e-08	-2.99739e-09
2	1	0	1	0	0.9265	-0.0521583	-0.052414	5.6795e-05	1	3.76192e-08	-2.97686e-09
2	1	0	1	0	1.0265	-0.0471581	-0.0473424	5.67773e-05	1	4.34025e-08	-2.68798e-09
2	1	0	1	0	1.1265	-0.0421579	-0.0423619	5.64664e-05	1	4.93807e-08	-2.39203e-09
2	1	0	1	0	1.2265	-0.0371577	-0.0373666	6.00469e-05	1	5.55583e-08	-2.24375e-09
2	1	0	1	0	1.3265	-0.0321575	-0.0323713	6.29633e-05	1	6.19321e-08	-2.0382e-09
2	1	0	1	0	1.4265	-0.0271573	-0.0273304	6.55828e-05	1	6.8546e-08	-1.79241e-09
2	1	0	1	0	1.5265	-0.022157	-0.0223701	6.71849e-05	1	7.54195e-08	-1.50293e-09
2	1	0	1	0	1.6265	-0.0171568	-0.0173833	7.03503e-05	1	8.2603e-08	-1.22292e-09
2	1	0	1	0	1.7265	-0.0121566	-0.0123191	7.76667e-05	1	9.03187e-08	-9.56781e-10
2	1	0	1	0	1.8265	-0.00715643	-0.00736403	8.52269e-05	1	9.86535e-08	-6.27614e-10
2	1	0	1	0	1.9265	-0.00215623	-0.00236342	9.32799e-05	1	1.0773e-07	-2.2046e-10
2	1	0	1	0	2.0265	0.00284397	0.00269019	0.000103242	1	1.17812e-07	2.77742e-10
2	1	0	1	0	2.1265	0.00784417	0.00772154	0.00011719	1	1.29097e-07	9.04886e-10
2	1	0	1	0	2.2265	0.0128444	0.0126723	0.000136604	1	1.42019e-07	1.73109e-09
2	1	0	1	0	2.3265	0.0178446	0.0176708	0.00015838	1	1.57042e-07	2.79871e-09
2	1	0	1	0	2.4265	0.0228448	0.0226778	0.000190538	1	1.74797e-07	4.32097e-09
2	1	0	1	0	2.5265	0.027845	0.0276413	0.000229909	1	1.9601e-07	6.35497e-09
2	1	0	1	0	2.6265	0.0328452	0.0326769	0.000276151	1	2.21461e-07	9.02376e-09
2	1	0	1	0	2.7265	0.0378454	0.037704	0.000332657	1	2.52108e-07	1.25425e-08
2	1	0	1	0	2.8265	0.0428456	0.0426908	0.000399319	1	2.88884e-07	1.70472e-08
2	1	0	1	0	2.9265	0.0478458	0.0476342	0.000468651	1	3.32501e-07	2.23238e-08
2	1	0	1	0	3.0265	0.052846	0.0527069	0.000548019	1	3.83657e-07	2.88844e-08
2	1	0	1	0	3.1265	0.0578462	0.0576735	0.000623699	1	4.42467e-07	3.59709e-08
2	1	0	1	0	3.2265	0.0628464	0.0627261	0.000695506	1	5.08704e-07	4.36264e-08
2	1	0	1	0	3.3265	0.0678466	0.0677076	0.000761424	1	5.81761e-07	5.15542e-08
2	1	0	1	0	3.4265	0.0728468	0.0726711	0.000810331	1	6.60558e-07	5.88876e-08
2	1	0	1	0	3.5265	0.077847	0.0777353	0.000847335	1	7.43778e-07	6.58679e-08
2	1	0	1	0	3.6265	0.0828472	0.082667	0.0008698	1	8.2994e-07	7.19038e-08
2	1	0	1	0	3.7265	0.0878474	0.0876835	0.00087786	1	9.17646e-07	7.69739e-08
2	1	0	1	0	3.8265	0.0928476	0.0926926	0.000877443	1	1.00572e-06	8.13325e-08
2	1	0	1	0	3.9265	0.0978478	0.0976423	0.000866896	1	1.09315e-06	8.46458e-08
2	1	0	1	0	4.0265	0.102848	0.102641	0.000849006	1	1.17917e-06	8.71427e-08
2	1	0	1	0	4.1265	0.107848	0.107662	0.000830483	1	1.26337e-06	8.94112e-08
2	1	0	1	0	4.2265	0.112848	0.112692	0.000808336	1	1.34545e-06	9.10929e-08
2	1	0	1	0	4.3265	0.117849	0.117637	0.000785251	1	1.42531e-06	9.23749e-08
2	1	0	1	0	4.4265	0.122849	0.122691	0.000762781	1	1.50292e-06	9.35863e-08
2	1	0	1	0	4.5265	0.127849	0.127644	0.000741886	1	1.57836e-06	9.46972e-08
2	1	0	1	0	4.6265	0.132849	0.132683	0.000721666	1	1.65174e-06	9.57526e-08
2	1	0	1	0	4.7265	0.137849	0.137671	0.000703087	1	1.72319e-06	9.67944e-08
2	1	0	1	0	4.8265	0.14285	0.142675	0.000687022	1	1.79289e-06	9.80211e-08
2	1	0	0	0	4.9267	0.14785	0.147677	0.00067111	1	1.86108e-06	9.91076e-08
2	1	0	0	0	5.0267	0.15285	0.152696	0.000660427	1	1.92765e-06	1.00844e-07
2	1	0	0	0	5.1267	0.15785	0.157668	0.00064404	1	1.99291e-06	1.01544e-07
2	1	0	0	0	5.2267	0.16285	0.162712	0.000632506	1	2.05694e-06	1.02916e-07
2	1	0	0	0	5.3267	0.167851	0.167685	0.000622902	1	2.11989e-06	1.04451e-07
2	1	0	0	0	5.4267	0.172851	0.172689	0.000612076	1	2.18181e-06	1.05698e-07
2	1	0	0	0	5.5267	0.177851	0.177638	0.000603915	1	2.24285e-06	1.07278e-07
2	1	0	0	0	5.6267	0.182851	0.182647	0.000594299	1	2.30309e-06	1.08547e-07
2	1	0	0	0	5.7267	0.187851	0.1877	0.000589077	1	2.3626e-06	1.1057e-07
2	1	0	0	0	5.8267	0.192852	0.192661	0.000583748	1	2.42146e-06	1.12466e-07
2	1	0	0	0	5.9267	0.197852	0.197679	0.000577253	1	2.47974e-06	1.14111e-07
2	1	0	0	0	6.0267	0.202852	0.202664	0.00057219	1	2.53752e-06	1.15962e-07
2	1	0	0	0	6.1267	0.207852	0.207659	0.000569306	1	2.59488e-06	1.18221e-07
2	1	0	0	0	6.2267	0.212852	0.212715	0.000565812	1	2.65183e-06	1.20356e-07
2	1	0	0	0	6.3267	0.217853	0.217705	0.000562521	1	2.70845e-06	1.22463e-07
2	1	0	0	0	6.4267	0.222853	0.222656	0.00055928	1	2.76478e-06	1.24527e-07
2	1	0	0	0	6.5267	0.227853	0.227691	0.000559147	1	2.82086e-06	1.27313e-07
2	1	0	0	0	6.6267	0.232853	0.23264	0.000555991	1	2.87674e-06	1.29346e-07
2	1	0	0	0	6.7267	0.237853	0.237684	0.000554124	1	2.93246e-06	1.31706e-07
2	1	0	0	0	6.8267	0.242854	0.242676	0.000554023	1	2.98804e-06	1.34448e-07
2	1	0	0	0	6.9267	0.247854	0.247681	0.000552334	1	3.04354e-06	1.36803e-07
2	1	0	0	0	7.0267	0.252854	0.252688	0.000551907	1	3.09897e-06	1.3946e-07
2	1	0	0	0	7.1267	0.257854	0.257691	0.000552679	1	3.15443e-06	1.42421e-07
2	1	0	0	0	7.2267	0.262854	0.262685	0.000551299	1	3.20984e-06	1.44818e-07
2	1	0	0	0	7.3267	0.267855	0.267673	0.000555267	1	3.26531e-06	1.4863e-07
2	1	0	0	0	7.4267	0.272855	0.27274	0.00055405	1	3.32085e-06	1.51111e-07
2	1	0	0	0	7.5267	0.277855	0.277701	0.000554564	1	3.37647e-06	1.54003e-07
2	1	0	0	0	7.6267	0.282855	0.282669	0.000555719	1	3.43222e-06	1.57084e-07
2	1	0	0	0	7.7267	0.287855	0.287705	0.000558582	1	3.48812e-06	1.60707e-07
2	1	0	0	0	7.8267	0.292856	0.292731	0.000560216	1	3.54417e-06	1.63992e-07
2	1	0	0	0	7.9267	0.297856	0.297758	0.00056109	1	3.60043e-06	1.67069e-07
2	0	0	1	0	8.0153	0.297706	0.297499	0.000439324	1	3.64536e-06	1.30698e-07
2	0	0	1	0	8.1153	0.292706	0.292541	0.000396819	1	3.68683e-06	1.16086e-07
2	0	0	1	0	8.2153	0.287705	0.287489	0.000369089	1	3.72487e-06	1.06109e-07
2	0	0	1	0	8.3153	0.282705	0.282529	0.000346207	1	3.76042e-06	9.78134e-08
2	0	0	1	0	8.4153	0.277705	0.277547	0.000329345	1	3.79399e-06	9.14084e-08
2	0	0	1	0	8.5153	0.272705	0.272578	0.000313638	1	3.82593e-06	8.54907e-08
2	0	0	1	0	8.6153	0.267705	0.267536	0.000300717	1	3.85651e-06	8.04524e-08
2	0	0	1	0	8.7153	0.262704	0.262499	0.000296251	1	3.88624e-06	7.77657e-08
2	0	0	1	0	8.8153	0.257704	0.257509	0.000288166	1	3.91557e-06	7.42055e-08
2	0	0	1	0	8.9153	0.252704	0.252508	0.000272087	1	3.94341e-06	6.87042e-08
2	0	0	1	0	9.0153	0.247704	0.247477	0.000261895	1	3.96996e-06	6.4813e-08
2	0	0	1	0	9.1153	0.242704	0.242509	0.000255424	1	3.99565e-06	6.19428e-08
2	0	0	1	0	9.2153	0.237703	0.237465	0.000248511	1	4.02066e-06	5.90127e-08
2	0	0	1	0	9.3153	0.232703	0.2325	0.000244425	1	4.04508e-06	5.68288e-08
2	0	0	1	0	9.4153	0.227703	0.227477	0.000236286	1	4.06891e-06	5.37495e-08
2	0	0	1	0	9.5153	0.222703	0.222492	0.00023202	1	4.09216e-06	5.16226e-08
2	0	0	1	0	9.6153	0.217703	0.217513	0.000226807	1	4.11486e-06	4.93334e-08
2	0	0	1	0	9.7153	0.212702	0.212496	0.00022125	1	4.13703e-06	4.70148e-08
2	0	0	1	0	9.8153	0.207702	0.207532	0.000216815	1	4.15871e-06	4.49959e-08
2	0	0	1	0	9.9153	0.202702	0.202497	0.000211475	1	4.1799e-06	4.2823e-08
2	0	0	1	0	10.0153	0.197702	0.197459	0.000207207	1	4.20064e-06	4.0915e-08
2	0	0	1	0	10.1153	0.192702	0.192468	0.000203803	1	4.22101e-06	3.92257e-08
2	0	0	1	0	10.2153	0.187701	0.18749	0.00019879	1	4.24087e-06	3.72712e-08
2	0	0	1	0	10.3153	0.182701	0.182507	0.00019412	1	4.26029e-06	3.54283e-08
2	0	0	1	0	10.4153	0.177701	0.177529	0.000189934	1	4.27934e-06	3.37187e-08
2	0	0	1	0	10.5153	0.172701	0.172504	0.00018512	1	4.2979e-06	3.1934e-08
2	0	0	1	0	10.6153	0.167701	0.167484	0.000179544	1	4.31598e-06	3.00708e-08
2	0	0	1	0	10.7153	0.1627	0.16246	0.000175423	1	4.33355e-06	2.84992e-08
2	0	0	1	0	10.8153	0.1577	0.157491	0.000171051	1	4.35075e-06	2.69389e-08
2	0	0	1	0	10.9153	0.1527	0.152502	0.000163888	1	4.36747e-06	2.49932e-08
2	0	0	1	0	11.0153	0.1477	0.147496	0.000161784	1	4.38368e-06	2.38625e-08
2	0	0	0	0	11.1155	0.1427	0.142474	0.000156001	1	4.39943e-06	2.22261e-08
2	0	0	0	0	11.2155	0.137699	0.137474	0.000150409	1	4.41453e-06	2.06773e-08
2	0	0	0	0	11.3155	0.132699	0.132449	0.000143168	1	4.42901e-06	1.89625e-08
2	0	0	0	0	11.4155	0.127699	0.127483	0.000134999	1	4.4428e-06	1.721e-08
2	0	0	0	0	11.5155	0.122699	0.122481	0.000128034	1	4.45579e-06	1.56817e-08
2	0	0	0	0	11.6155	0.117699	0.117484	0.000117681	1	4.46786e-06	1.38256e-08
2	0	0	0	0	11.7155	0.112698	0.112482	0.000104746	1	4.47889e-06	1.1782e-08
2	0	0	0	0	11.8155	0.107698	0.107463	9.13068e-05	1	4.4887e-06	9.81214e-09
2	0	0	0	0	11.9155	0.102698	0.10253	7.50436e-05	1	4.49702e-06	7.69419e-09
2	0	0	0	0	12.0155	0.0976978	0.0975268	5.75069e-05	1	4.50356e-06	5.60846e-09
2	0	0	0	0	12.1155	0.0926976	0.0925485	3.21343e-05	1	4.50794e-06	2.97398e-09
2	0	0	0	0	12.2155	0.0876974	0.0874874	3.59822e-06	1	4.50969e-06	3.14799e-10
2	0	0	0	0	12.3155	0.0826972	0.0825271	-3.02742e-05	1	4.50822e-06	-2.49844e-09
2	0	0	0	0	12.4155	0.077697	0.0775233	-7.35986e-05	1	4.50289e-06	-5.70561e-09
2	0	0	0	0	12.5155	0.0726968	0.0725312	-0.000123019	1	4.4929e-06	-8.9227e-09
2	0	0	0	0	12.6155	0.0676966	0.0674574	-0.000184037	1	4.47746e-06	-1.24147e-08
2	0	0	0	0	12.7155	0.0626964	0.0625003	-0.000247527	1	4.45578e-06	-1.54705e-08
2	0	0	0	0	12.8155	0.0576962	0.0574838	-0.000321076	1	4.42715e-06	-1.84567e-08
2	0	0	0	0	12.9155	0.052696	0.052497	-0.000397017	1	4.39115e-06	-2.08422e-08
2	0	0	0	0	13.0155	0.0476958	0.0474826	-0.00047131	1	4.34758e-06	-2.2379e-08
2	0	0	0	0	13.1155	0.0426956	0.0424841	-0.000537762	1	4.29691e-06	-2.28463e-08
2	0	0	0	0	13.2155	0.0376954	0.0374495	-0.000595456	1	4.23998e-06	-2.22995e-08
2	0	0	0	0	13.3155	0.0326952	0.0325051	-0.000636065	1	4.17805e-06	-2.06754e-08
2	0	0	0	0	13.4155	0.027695	0.0274907	-0.000662015	1	4.11272e-06	-1.81993e-08
2	0	0	0	0	13.5155	0.0226948	0.022453	-0.000673036	1	4.04562e-06	-1.51117e-08
2	0	0	0	0	13.6155	0.0176946	0.0174863	-0.000667355	1	3.97832e-06	-1.16696e-08
2	0	0	0	0	13.7155	0.0126944	0.0124985	-0.00065292	1	3.91208e-06	-8.16049e-09
2	0	0	0	0	13.8155	0.00769417	0.00752542	-0.000629176	1	3.84781e-06	-4.73481e-09
2	0	0	0	0	13.9155	0.00269396	0.00246756	-0.000601343	1	3.78609e-06	-1.48385e-09
2	0	0	0	0	14.0155	-0.00230624	-0.0025235	-0.000573252	1	3.72716e-06	1.4466e-09
2	0	0	0	0	14.1155	-0.00730644	-0.00754637	-0.000543386	1	3.6712e-06	4.10059e-09
2	0	0	0	0	14.2155	-0.0123066	-0.0125131	-0.000516507	1	3.61812e-06	6.46308e-09
2	0	0	0	0	14.3155	-0.0173068	-0.0175836	-0.000489117	1	3.56773e-06	8.60045e-09
2	0	0	0	0	14.4155	-0.0223071	-0.0225683	-0.000465774	1	3.51985e-06	1.05117e-08
2	0	0	0	0	14.5155	-0.0273073	-0.0275255	-0.000443364	1	3.47425e-06	1.22038e-08
2	0	0	0	0	14.6155	-0.0323075	-0.0325261	-0.00042479	1	3.43072e-06	1.38168e-08
2	0	0	0	0	14.7155	-0.0373077	-0.0375574	-0.000406243	1	3.38905e-06	1.52574e-08
2	0	0	0	0	14.8155	-0.0423079	-0.0425803	-0.000390569	1	3.34903e-06	1.66306e-08
2	0	0	0	0	14.9155	-0.0473081	-0.0475226	-0.000376581	1	3.31052e-06	1.78961e-08
2	0	0	0	0	15.0155	-0.0523083	-0.0525826	-0.000366716	1	3.27337e-06	1.92829e-08
2	0	0	0	0	15.1155	-0.0573085	-0.057562	-0.000352293	1	3.23741e-06	2.02787e-08
2	0	0	0	0	15.2155	-0.0623087	-0.062569	-0.000342025	1	3.20258e-06	2.14002e-08
2	0	0	0	0	15.3155	-0.0673089	-0.0675908	-0.000332916	1	3.16875e-06	2.25021e-08
2	0	0	0	0	15.4155	-0.0723091	-0.0725511	-0.000323696	1	3.13584e-06	2.34845e-08
2	0	0	0	0	15.5155	-0.0773093	-0.0775485	-0.000314592	1	3.10376e-06	2.43961e-08
2	0	0	0	0	15.6155	-0.0823095	-0.0825491	-0.000308611	1	3.07244e-06	2.54755e-08
2	0	0	0	0	15.7155	-0.0873097	-0.0875498	-0.000301789	1	3.04184e-06	2.64215e-08
2	0	0	0	0	15.8155	-0.0923099	-0.0925981	-0.000296013	1	3.01187e-06	2.74102e-08
2	0	0	0	0	15.9155	-0.0973101	-0.0975033	-0.000289004	1	2.98251e-06	2.81788e-08
2	0	0	1	0	16.0157	-0.10231	-0.102525	-0.000283372	1	2.95367e-06	2.90528e-08
2	0	0	1	0	16.1157	-0.107311	-0.107513	-0.000281505	1	2.9254e-06	3.02655e-08
2	0	0	1	0	16.2157	-0.112311	-0.1125	-0.000273685	1	2.8976e-06	3.07895e-08
2	0	0	1	0	16.3157	-0.117311	-0.117546	-0.000270017	1	2.87025e-06	3.17394e-08
2	0	0	1	0	16.4157	-0.122311	-0.122516	-0.000265763	1	2.84332e-06	3.25602e-08
2	0	0	1	0	16.5157	-0.127311	-0.127543	-0.000263661	1	2.81679e-06	3.36281e-08
2	0	0	1	0	16.6157	-0.132312	-0.132534	-0.000257848	1	2.79059e-06	3.41736e-08
2	0	0	1	0	16.7157	-0.137312	-0.137534	-0.000254771	1	2.76473e-06	3.50395e-08
2	0	0	1	0	16.8157	-0.142312	-0.142549	-0.000251681	1	2.73917e-06	3.58769e-08
2	0	0	1	0	16.9157	-0.147312	-0.147568	-0.000250625	1	2.71391e-06	3.69842e-08
2	0	0	1	0	17.0157	-0.152312	-0.152576	-0.000246981	1	2.68893e-06	3.76833e-08
2	0	0	1	0	17.1157	-0.157313	-0.157523	-0.00024486	1	2.66414e-06	3.85711e-08
2	0	0	1	0	17.2157	-0.162313	-0.162496	-0.000243992	1	2.63959e-06	3.96478e-08
2	0	0	1	0	17.3157	-0.167313	-0.167562	-0.000243388	1	2.61522e-06	4.07825e-08
2	0	0	1	0	17.4157	-0.172313	-0.172537	-0.000240256	1	2.59102e-06	4.1453e-08
2	0	0	1	0	17.5157	-0.177313	-0.177602	-0.000237494	1	2.56696e-06	4.21794e-08
2	0	0	1	0	17.6157	-0.182314	-0.182574	-0.000236761	1	2.54302e-06	4.32263e-08
2	0	0	1	0	17.7157	-0.187314	-0.187598	-0.000237246	1	2.51918e-06	4.45069e-08
2	0	0	1	0	17.8157	-0.192314	-0.192606	-0.000237238	1	2.4954e-06	4.56934e-08
2	0	0	1	0	17.9157	-0.197314	-0.197547	-0.00023616	1	2.47165e-06	4.66528e-08
2	1	0	0	1	18.0051	-0.198214	-0.198402	-0.000127638	1	2.45414e-06	2.53236e-08
2	1	0	0	1	18.1051	-0.193214	-0.193396	-0.000106356	1	2.44296e-06	2.05689e-08
2	1	0	0	1	18.2051	-0.188214	-0.188432	-9.17978e-05	1	2.43346e-06	1.72977e-08
2	1	0	0	1	18.3051	-0.183214	-0.183414	-8.15156e-05	1	2.42509e-06	1.49511e-08
2	1	0	0	1	18.4051	-0.178213	-0.178396	-7.35226e-05	1	2.41764e-06	1.31161e-08
2	1	0	0	1	18.5051	-0.173213	-0.173422	-6.57205e-05	1	2.41092e-06	1.13974e-08
2	1	0	0	1	18.6051	-0.168213	-0.168383	-5.96864e-05	1	2.40487e-06	1.00502e-08
2	1	0	0	1	18.7051	-0.163213	-0.163425	-5.3656e-05	1	2.39941e-06	8.76873e-09
2	1	0	0	1	18.8051	-0.158213	-0.158376	-5.03722e-05	1	2.39447e-06	7.97774e-09
2	1	0	0	1	18.9051	-0.153212	-0.153364	-4.42305e-05	1	2.39002e-06	6.78338e-09
2	1	0	0	1	19.0051	-0.148212	-0.148427	-4.14078e-05	1	2.38598e-06	6.14605e-09
2	1	0	0	1	19.1051	-0.143212	-0.143388	-3.62941e-05	1	2.38233e-06	5.20412e-09
2	1	0	0	1	19.2051	-0.138212	-0.138423	-3.34396e-05	1	2.37907e-06	4.62881e-09
2	1	0	0	1	19.3051	-0.133212	-0.13341	-2.97019e-05	1	2.37614e-06	3.96252e-09
2	1	0	0	1	19.4051	-0.128211	-0.128413	-2.70399e-05	1	2.37355e-06	3.47229e-09
2	1	0	0	1	19.5051	-0.123211	-0.123368	-2.35689e-05	1	2.37125e-06	2.90766e-09
2	1	0	0	1	19.6051	-0.118211	-0.11839	-2.14316e-05	1	2.36925e-06	2.53728e-09
2	1	0	0	1	19.7051	-0.113211	-0.113386	-1.88332e-05	1	2.36754e-06	2.13543e-09
2	1	0	0	1	19.8051	-0.108211	-0.108398	-1.5848e-05	1	2.36607e-06	1.7179e-09
2	1	0	0	1	19.9051	-0.10321	-0.103421	-1.24972e-05	1	2.36485e-06	1.29247e-09
2	1	0	1	1	20.0053	-0.0982101	-0.0984404	-1.16793e-05	2	2.36386e-06	1.14972e-09
2	1	0	1	1	20.1053	-0.09321	-0.0933953	-9.38479e-06	2	2.36311e-06	8.76495e-10
2	1	0	1	1	20.2053	-0.0882097	-0.0884031	-6.62038e-06	2	2.36259e-06	5.85262e-10
2	1	0	1	1	20.3053	-0.0832095	-0.0833972	-3.76235e-06	2	2.36227e-06	3.13769e-10
2	1	0	1	1	20.4053	-0.0782093	-0.0784422	-2.57886e-06	2	2.36216e-06	2.02292e-10
2	1	0	1	1	20.5053	-0.0732091	-0.0734268	-9.52012e-07	2	2.36224e-06	6.99032e-11
2	1	0	1	1	20.6053	-0.0682089	-0.0684325	5.60023e-07	2	2.36253e-06	-3.83238e-11
2	1	0	1	1	20.7053	-0.0632087	-0.0633524	3.41805e-06	2	2.36301e-06	-2.16542e-10
2	1	0	1	1	20.8053	-0.0582085	-0.0584292	4.76934e-06	2	2.36367e-06	-2.78669e-10
2	1	0	1	1	20.9053	-0.0532083	-0.0534402	7.26703e-06	2	2.36453e-06	-3.88352e-10
2	1	0	1	1	21.0053	-0.0482081	-0.0483834	8.68898e-06	2	2.36562e-06	-4.20403e-10
2	1	0	1	1	21.1053	-0.0432079	-0.0433606	1.16795e-05	2	2.36689e-06	-5.06429e-10
2	1	0	1	1	21.2053	-0.0382077	-0.0384161	1.37002e-05	2	2.36839e-06	-5.2631e-10
2	1	0	1	1	21.3053	-0.0332075	-0.0333721	1.67685e-05	2	2.37014e-06	-5.59599e-10
2	1	0	1	1	21.4053	-0.0282073	-0.0284298	1.88511e-05	2	2.37217e-06	-5.35931e-10
2	1	0	1	1	21.5053	-0.0232071	-0.0234175	2.25216e-05	2	2.37455e-06	-5.274e-10
2	1	0	1	1	21.6053	-0.0182069	-0.0183978	2.67203e-05	2	2.3773e-06	-4.91596e-10
2	1	0	1	1	21.7053	-0.0132067	-0.0133961	3.09791e-05	2	2.38053e-06	-4.15001e-10
2	1	0	1	1	21.8053	-0.00820648	-0.00838493	3.86771e-05	2	2.38433e-06	-3.24305e-10
2	1	0	1	1	21.9053	-0.00320627	-0.00342673	4.77917e-05	2	2.38889e-06	-1.63769e-10
2	1	0	1	1	22.0053	0.00179393	0.00163961	5.7816e-05	2	2.39445e-06	9.47954e-11
2	1	0	1	1	22.1053	0.00679413	0.00659357	7.16804e-05	2	2.40116e-06	4.7263e-10
2	1	0	1	1	22.2053	0.0117943	0.0116175	9.02293e-05	2	2.40943e-06	1.04824e-09
2	1	0	1	1	22.3053	0.0167945	0.0166117	0.000113178	2	2.41967e-06	1.88009e-09
2	1	0	1	1	22.4053	0.0217947	0.0215964	0.000138991	2	2.43241e-06	3.00171e-09
2	1	0	1	1	22.5053	0.0267949	0.0266024	0.00017393	2	2.4483e-06	4.62695e-09
2	1	0	1	1	22.6053	0.0317951	0.0316348	0.00021739	2	2.46802e-06	6.87709e-09
2	1	0	1	1	22.7053	0.0367953	0.0365802	0.000266224	2	2.49238e-06	9.73855e-09
2	1	0	1	1	22.8053	0.0417955	0.0415819	0.000323955	2	2.52218e-06	1.34707e-08
2	1	0	1	1	22.9053	0.0467957	0.046574	0.000389701	2	2.55814e-06	1.81499e-08
2	1	0	1	1	23.0053	0.0517959	0.0515789	0.000461814	2	2.60088e-06	2.38198e-08
2	1	0	1	1	23.1053	0.0567961	0.0566495	0.000531139	2	2.65069e-06	3.00888e-08
2	1	0	1	1	23.2053	0.0617963	0.0616342	0.00060073	2	2.70752e-06	3.70255e-08
2	1	0	1	1	23.3053	0.0667965	0.0666358	0.000663662	2	2.77101e-06	4.42236e-08
2	1	0	1	1	23.4053	0.0717967	0.071665	0.000717362	2	2.84034e-06	5.14098e-08
2	1	0	1	1	23.5053	0.0767969	0.0766307	0.00075846	2	2.91444e-06	5.81213e-08
2	1	0	1	1	23.6053	0.0817971	0.0816843	0.00078602	2	2.99204e-06	6.42055e-08
2	1	0	1	1	23.7053	0.0867973	0.0866139	0.000800577	2	3.07182e-06	6.9341e-08
2	1	0	1	1	23.8053	0.0917976	0.0916611	0.000805016	2	3.15258e-06	7.37886e-08
2	1	0	1	1	23.9053	0.0967978	0.0966087	0.000801107	2	3.2332e-06	7.73939e-08
2	1	0	1	1	24.0053	0.101798	0.101678	0.0007873	2	3.31287e-06	8.00513e-08
2	1	0	1	1	24.1053	0.106798	0.106622	0.000769402	2	3.39097e-06	8.20348e-08
2	1	0	1	1	24.2053	0.111798	0.111626	0.000748902	2	3.46712e-06	8.35973e-08
2	1	0	1	1	24.3053	0.116799	0.116597	0.00072654	2	3.54112e-06	8.47126e-08
2	1	0	1	1	24.4053	0.121799	0.121616	0.000703324	2	3.61283e-06	8.55355e-08
2	1	0	1	1	24.5053	0.126799	0.126629	0.000682025	2	3.68231e-06	8.63644e-08
2	1	0	1	1	24.6053	0.131799	0.131614	0.000662342	2	3.74962e-06	8.71735e-08
2	1	0	1	1	24.7053	0.136799	0.136646	0.000640509	2	3.81487e-06	8.75233e-08
2	1	0	1	1	24.8053	0.1418	0.141687	0.000622028	2	3.87818e-06	8.81334e-08
2	1	0	1	1	24.9053	0.1468	0.146614	0.000604425	2	3.93969e-06	8.86171e-08
2	1	0	0	1	25.0055	0.1518	0.151659	0.000588833	2	3.99965e-06	8.93018e-08
2	1	0	0	1	25.1055	0.1568	0.156628	0.000574559	2	4.05802e-06	8.99919e-08
2	1	0	0	1	25.2055	0.1618	0.16169	0.000560566	2	4.11496e-06	9.06377e-08
2	1	0	0	1	25.3055	0.166801	0.166653	0.000548409	2	4.17063e-06	9.13942e-08
2	1	0	0	1	25.4055	0.171801	0.171664	0.000538645	2	4.22512e-06	9.24662e-08
2	1	0	0	1	25.5055	0.176801	0.176604	0.000528041	2	4.27856e-06	9.3254e-08
2	1	0	0	1	25.6055	0.181801	0.181595	0.000516378	2	4.331e-06	9.37714e-08
2	1	0	0	1	25.7055	0.186801	0.186605	0.000508203	2	4.38256e-06	9.48331e-08
2	1	0	0	1	25.8055	0.191802	0.191627	0.000501505	2	4.4333e-06	9.61016e-08
2	1	0	0	1	25.9055	0.196802	0.196552	0.000493625	2	4.4833e-06	9.70229e-08
2	1	0	0	1	26.0055	0.201802	0.201621	0.000486914	2	4.53262e-06	9.81723e-08
2	1	0	0	1	26.1055	0.206802	0.206589	0.000481827	2	4.58136e-06	9.95402e-08
2	1	0	0	1	26.2055	0.211802	0.21163	0.000477577	2	4.62954e-06	1.0107e-07
2	1	0	0	1	26.3055	0.216803	0.216618	0.000472908	2	4.67721e-06	1.0244e-07
2	1	0	0	1	26.4055	0.221803	0.22164	0.000468349	2	4.72446e-06	1.03805e-07
2	1	0	0	1	26.5055	0.226803	0.226663	0.000463651	2	4.77131e-06	1.05092e-07
2	1	0	0	1	26.6055	0.231803	0.231643	0.000460883	2	4.81782e-06	1.0676e-07
2	1	0	0	1	26.7055	0.236803	0.236599	0.000459095	2	4.86401e-06	1.08622e-07
2	1	0	0	1	26.8055	0.241804	0.241689	0.000456908	2	4.90994e-06	1.1043e-07
2	1	0	0	1	26.9055	0.246804	0.246603	0.000452736	2	4.95567e-06	1.11646e-07
2	1	0	0	1	27.0055	0.251804	0.251619	0.000453473	2	5.00124e-06	1.14102e-07
2	1	0	0	1	27.1055	0.256804	0.256692	0.000452554	2	5.04671e-06	1.16167e-07
2	1	0	0	1	27.2055	0.261804	0.261609	0.000451551	2	5.09209e-06	1.1813e-07
2	1	0	0	1	27.3055	0.266805	0.26666	0.000452148	2	5.13746e-06	1.2057e-07
2	1	0	0	1	27.4055	0.271805	0.271643	0.000452609	2	5.18285e-06	1.22948e-07
2	1	0	0	1	27.5055	0.276805	0.276661	0.000453346	2	5.22834e-06	1.25423e-07
2	1	0	0	1	27.6055	0.281805	0.281679	0.000454819	2	5.27394e-06	1.28113e-07
2	1	0	0	1	27.7055	0.286805	0.286655	0.000457525	2	5.31973e-06	1.31152e-07
2	1	0	0	1	27.8055	0.291806	0.291635	0.000459752	2	5.36572e-06	1.3408e-07
2	1	0	0	1	27.9055	0.296806	0.29664	0.00046195	2	5.412e-06	1.37033e-07
2	0	0	0	1	27.9951	0.298706	0.298493	0.000360509	2	5.45118e-06	1.0761e-07
2	0	0	0	1	28.0951	0.293706	0.29351	0.000324233	2	5.4851e-06	9.51655e-08
2	0	0	0	1	28.1951	0.288705	0.288501	0.000303463	2	5.51635e-06	8.75494e-08
2	0	0	0	1	28.2951	0.283705	0.28354	0.000287107	2	5.54572e-06	8.14063e-08
2	0	0	0	1	28.3951	0.278705	0.278497	0.000275975	2	5.57362e-06	7.68583e-08
2	0	0	0	1	28.4951	0.273705	0.273508	0.000262905	2	5.60029e-06	7.19068e-08
2	0	0	0	1	28.5951	0.268705	0.268542	0.000252718	2	5.62595e-06	6.78654e-08
2	0	0	0	1	28.6951	0.263704	0.263516	0.000244006	2	5.65068e-06	6.42995e-08
2	0	0	0	1	28.7951	0.258704	0.258532	0.000236789	2	5.67461e-06	6.12176e-08
2	0	0	0	1	28.8951	0.253704	0.25349	0.000229614	2	5.69779e-06	5.82049e-08
2	0	0	0	1	28.9951	0.248704	0.248506	0.000224684	2	5.72036e-06	5.58354e-08
2	0	0	0	1	29.0951	0.243704	0.243454	0.000217493	2	5.74232e-06	5.29495e-08
2	0	0	0	1	29.1951	0.238703	0.238493	0.000213759	2	5.76371e-06	5.09799e-08
2	0	0	0	1	29.2951	0.233703	0.233532	0.000208912	2	5.7846e-06	4.87876e-08
2	0	0	0	1	29.3951	0.228703	0.228481	0.000201995	2	5.80501e-06	4.61519e-08
2	0	0	0	1	29.4951	0.223703	0.223515	0.000197907	2	5.82497e-06	4.42352e-08
2	0	0	0	1	29.5951	0.218703	0.218486	0.000195263	2	5.84449e-06	4.26622e-08
2	0	0	0	1	29.6951	0.213702	0.213472	0.00019212	2	5.86358e-06	4.10122e-08
2	0	0	0	1	29.7951	0.208702	0.208485	0.000186401	2	5.88227e-06	3.88617e-08
2	0	0	0	1	29.8951	0.203702	0.203522	0.000180358	2	5.90056e-06	3.67069e-08
2	0	0	0	1	29.9951	0.198702	0.198484	0.000179874	2	5.91847e-06	3.5702e-08
2	0	0	0	1	30.0951	0.193702	0.193469	0.000175264	2	5.93599e-06	3.39081e-08
2	0	0	0	1	30.1951	0.188701	0.188516	0.000171339	2	5.95314e-06	3.23001e-08
2	0	0	0	1	30.2951	0.183701	0.183471	0.00016702	2	5.96992e-06	3.06433e-08
2	0	0	0	1	30.3951	0.178701	0.178492	0.000163295	2	5.98631e-06	2.91467e-08
2	0	0	0	1	30.4951	0.173701	0.173476	0.000161162	2	6.00233e-06	2.79579e-08
2	0	0	0	1	30.5951	0.168701	0.168492	0.000155582	2	6.01797e-06	2.62143e-08
2	0	0	0	1	30.6951	0.1637	0.163521	0.000150896	2	6.0332e-06	2.46746e-08
2	0	0	0	1	30.7951	0.1587	0.1585	0.000148082	2	6.04804e-06	2.3471e-08
2	0	0	0	1	30.8951	0.1537	0.153462	0.000144272	2	6.06246e-06	2.21403e-08
2	0	0	0	1	30.9951	0.1487	0.148475	0.000138756	2	6.07639e-06	2.06018e-08
2	0	0	1	1	31.0953	0.1437	0.143475	0.000133935	2	6.08989e-06	1.92163e-08
2	0	0	1	1	31.1953	0.138699	0.138462	0.000128571	2	6.10286e-06	1.78022e-08
2	0	0	1	1	31.2953	0.133699	0.133458	0.000122514	2	6.11524e-06	1.63504e-08
2	0	0	1	1	31.3953	0.128699	0.128444	0.000114392	2	6.12701e-06	1.4693e-08
2	0	0	1	1	31.4953	0.123699	0.123487	0.000108852	2	6.13805e-06	1.34419e-08
2	0	0	1	1	31.5953	0.118699	0.11845	9.8996e-05	2	6.14827e-06	1.17261e-08
2	0	0	1	1	31.6953	0.113698	0.113474	8.88498e-05	2	6.15754e-06	1.00822e-08
2	0	0	1	1	31.7953	0.108698	0.108464	7.70061e-05	2	6.16568e-06	8.3524e-09
2	0	0	1	1	31.8953	0.103698	0.103482	6.15095e-05	2	6.17249e-06	6.3651e-09
2	0	0	1	1	31.9953	0.0986978	0.0985307	4.38773e-05	2	6.17766e-06	4.32327e-09
2	0	0	1	1	32.0953	0.0936976	0.0934962	2.29597e-05	2	6.18087e-06	2.14664e-09
2	0	0	1	1	32.1953	0.0886974	0.0884648	-5.36447e-06	2	6.18167e-06	-4.74567e-10
2	0	0	1	1	32.2953	0.0836972	0.0834611	-3.77301e-05	2	6.17954e-06	-3.149e-09
2	0	0	1	1	32.3953	0.078697	0.0784658	-7.69088e-05	2	6.17385e-06	-6.03471e-09
2	0	0	1	1	32.4953	0.0736968	0.0735076	-0.000122794	2	6.16388e-06	-9.02632e-09
2	0	0	1	1	32.5953	0.0686966	0.0684794	-0.000177565	2	6.14887e-06	-1.21595e-08
2	0	0	1	1	32.6953	0.0636964	0.0635201	-0.00023968	2	6.12803e-06	-1.52245e-08
2	0	0	1	1	32.7953	0.0586962	0.0585068	-0.000308467	2	6.10059e-06	-1.80474e-08
2	0	0	1	1	32.8953	0.053696	0.05345	-0.000380501	2	6.06605e-06	-2.03378e-08
2	0	0	1	1	32.9953	0.0486958	0.0484982	-0.000455451	2	6.02408e-06	-2.20885e-08
2	0	0	1	1	33.0953	0.0436956	0.0434912	-0.000524826	2	5.97487e-06	-2.28253e-08
2	0	0	1	1	33.1953	0.0386954	0.0384779	-0.000585977	2	5.91906e-06	-2.25471e-08
2	0	0	1	1	33.2953	0.0336952	0.0334974	-0.000635507	2	5.85767e-06	-2.12878e-08
2	0	0	1	1	33.3953	0.028695	0.0284629	-0.000670322	2	5.79217e-06	-1.90793e-08
2	0	0	1	1	33.4953	0.0236948	0.0234782	-0.000686423	2	5.72412e-06	-1.6116e-08
2	0	0	1	1	33.5953	0.0186946	0.0184998	-0.000687711	2	5.65512e-06	-1.27225e-08
2	0	0	1	1	33.6953	0.0136944	0.0134685	-0.000679024	2	5.58657e-06	-9.14541e-09
2	0	0	1	1	33.7953	0.00869421	0.00847635	-0.000659009	2	5.51951e-06	-5.58599e-09
2	0	0	1	1	33.8953	0.003694	0.00350012	-0.000634535	2	5.45472e-06	-2.22095e-09
2	0	0	1	1	33.9953	-0.0013062	-0.00153759	-0.00060687	2	5.39258e-06	9.33116e-10
2	0	0	1	1	34.0953	-0.0063064	-0.00651275	-0.000576817	2	5.33333e-06	3.75666e-09
2	0	0	1	1	34.1953	-0.0113066	-0.0115282	-0.000548205	2	5.27697e-06	6.31981e-09
2	0	0	1	1	34.2953	-0.0163068	-0.0165829	-0.00052111	2	5.22337e-06	8.6415e-09
2	0	0	1	1	34.3953	-0.021307	-0.0214891	-0.000495993	2	5.17237e-06	1.06585e-08
2	0	0	1	1	34.4953	-0.0263072	-0.0265269	-0.000475044	2	5.12373e-06	1.26014e-08
2	0	0	1	1	34.5953	-0.0313074	-0.0315253	-0.000452771	2	5.07726e-06	1.42738e-08
2	0	0	1	1	34.6953	-0.0363076	-0.0365397	-0.000433901	2	5.03275e-06	1.58546e-08
2	0	0	1	1	34.7953	-0.0413078	-0.04157	-0.000417707	2	4.98998e-06	1.73641e-08
2	0	0	1	1	34.8953	-0.046308	-0.0465547	-0.000403911	2	4.9488e-06	1.8804e-08
2	0	0	1	1	34.9953	-0.0513082	-0.0516158	-0.000389012	2	4.90904e-06	2.00791e-08
2	0	0	1	1	35.0953	-0.0563084	-0.0565846	-0.000377666	2	4.87054e-06	2.13701e-08
2	0	0	1	1	35.1953	-0.0613086	-0.0615862	-0.00036617	2	4.83323e-06	2.25511e-08
2	0	0	1	1	35.2953	-0.0663089	-0.0665688	-0.000357093	2	4.79697e-06	2.37712e-08
2	0	0	1	1	35.3953	-0.071309	-0.0715896	-0.000346498	2	4.76169e-06	2.48056e-08
2	0	0	1	1	35.4953	-0.0763093	-0.0765817	-0.000338344	2	4.72732e-06	2.5911e-08
2	0	0	1	1	35.5953	-0.0813095	-0.0815484	-0.000329323	2	4.69374e-06	2.68558e-08
2	0	0	1	1	35.6953	-0.0863097	-0.0865236	-0.000323466	2	4.66092e-06	2.79874e-08
2	0	0	1	1	35.7953	-0.0913099	-0.0915613	-0.000317026	2	4.62879e-06	2.90273e-08
2	0	0	1	1	35.8953	-0.0963101	-0.0965555	-0.000310423	2	4.59732e-06	2.9973e-08
2	0	0	0	1	35.9955	-0.10131	-0.101562	-0.000303303	2	4.5664e-06	3.08042e-08
2	0	0	0	1	36.0955	-0.10631	-0.106505	-0.000299469	2	4.53608e-06	3.18949e-08
2	0	0	0	1	36.1955	-0.111311	-0.111556	-0.000294884	2	4.50629e-06	3.28962e-08
2	0	0	0	1	36.2955	-0.116311	-0.116531	-0.000290314	2	4.47698e-06	3.38307e-08
2	0	0	0	1	36.3955	-0.121311	-0.121532	-0.000284761	2	4.44812e-06	3.46075e-08
2	0	0	0	1	36.4955	-0.126311	-0.126532	-0.000281662	2	4.4197e-06	3.56392e-08
2	0	0	0	1	36.5955	-0.131311	-0.131518	-0.000278206	2	4.39166e-06	3.65892e-08
2	0	0	0	1	36.6955	-0.136312	-0.136531	-0.000273083	2	4.36402e-06	3.72842e-08
2	0	0	0	1	36.7955	-0.141312	-0.141526	-0.000270303	2	4.33671e-06	3.82549e-08
2	0	0	0	1	36.8955	-0.146312	-0.146579	-0.00026737	2	4.30971e-06	3.91908e-08
2	0	0	0	1	36.9955	-0.151312	-0.151535	-0.000264202	2	4.28302e-06	4.00357e-08
2	0	0	0	1	37.0955	-0.156313	-0.156562	-0.000262769	2	4.25657e-06	4.11396e-08
2	0	0	0	1	37.1955	-0.161313	-0.161556	-0.000259906	2	4.23039e-06	4.19893e-08
2	0	0	0	1	37.2955	-0.166313	-0.166517	-0.000255832	2	4.20443e-06	4.26005e-08
2	0	0	0	1	37.3955	-0.171313	-0.171534	-0.000255799	2	4.17866e-06	4.38782e-08
2	0	0	0	1	37.4955	-0.176313	-0.176532	-0.00025461	2	4.15306e-06	4.49469e-08
2	0	0	0	1	37.5955	-0.181314	-0.181545	-0.00025302	2	4.12759e-06	4.59345e-08
2	0	0	0	1	37.6955	-0.186314	-0.186488	-0.000252826	2	4.10226e-06	4.7149e-08
2	0	0	0	1	37.7955	-0.191314	-0.191518	-0.000252361	2	4.07701e-06	4.83318e-08
2	0	0	0	1	37.8955	-0.196314	-0.196483	-0.000250079	2	4.05182e-06	4.91363e-08
2	1	0	1	0	37.9849	-0.199214	-0.199395	-0.000147271	2	4.0309e-06	2.93652e-08
2	1	0	1	0	38.0849	-0.194214	-0.194458	-0.000120429	2	4.01802e-06	2.34184e-08
2	1	0	1	0	38.1849	-0.189214	-0.189457	-0.000106325	2	4.00702e-06	2.0144e-08
2	1	0	1	0	38.2849	-0.184214	-0.184432	-9.51256e-05	2	3.99721e-06	1.75443e-08
2	1	0	1	0	38.3849	-0.179213	-0.179398	-8.63025e-05	2	3.98835e-06	1.54825e-08
2	1	0	1	0	38.4849	-0.174213	-0.174399	-8.00247e-05	2	3.98025e-06	1.39563e-08
2	1	0	1	0	38.5849	-0.169213	-0.169417	-7.30651e-05	2	3.97282e-06	1.23785e-08
2	1	0	1	0	38.6849	-0.164213	-0.164394	-6.82022e-05	2	3.966e-06	1.1212e-08
2	1	0	1	0	38.7849	-0.159213	-0.1594	-6.28783e-05	2	3.95971e-06	1.00228e-08
2	1	0	1	0	38.8849	-0.154212	-0.154391	-5.85648e-05	2	3.95392e-06	9.04185e-09
2	1	0	1	0	38.9849	-0.149212	-0.14941	-5.29494e-05	2	3.94856e-06	7.91118e-09
2	1	0	1	0	39.0849	-0.144212	-0.144384	-4.96922e-05	2	3.9436e-06	7.17476e-09
2	1	0	1	0	39.1849	-0.139212	-0.139369	-4.53945e-05	2	3.93904e-06	6.32658e-09
2	1	0	1	0	39.2849	-0.134212	-0.134357	-4.45272e-05	2	3.93483e-06	5.98257e-09
2	1	0	1	0	39.3849	-0.129211	-0.129398	-3.9191e-05	2	3.93096e-06	5.07124e-09
2	1	0	1	0	39.4849	-0.124211	-0.124428	-3.45259e-05	2	3.92742e-06	4.296e-09
2	1	0	1	0	39.5849	-0.119211	-0.119402	-3.53296e-05	2	3.92419e-06	4.21844e-09
2	1	0	1	0	39.6849	-0.114211	-0.114363	-3.14064e-05	2	3.92125e-06	3.59175e-09
2	1	0	1	0	39.7849	-0.109211	-0.109397	-2.73155e-05	2	3.91858e-06	2.98823e-09
2	1	0	1	0	39.8849	-0.10421	-0.10436	-2.52453e-05	2	3.91617e-06	2.6346e-09
2	1	0	1	0	39.9849	-0.0992102	-0.099421	-2.2124e-05	3	3.91401e-06	2.19959e-09
2	1	0	0	0	40.0851	-0.09421	-0.0944183	-2.06738e-05	3	3.91208e-06	1.95199e-09
2	1	0	0	0	40.1851	-0.0892098	-0.0893679	-1.88368e-05	3	3.9104e-06	1.6834e-09
2	1	0	0	0	40.2851	-0.0842096	-0.0843895	-1.58498e-05	3	3.90893e-06	1.33756e-09
2	1	0	0	0	40.3851	-0.0792094	-0.0794578	-1.40322e-05	3	3.90769e-06	1.11497e-09
2	1	0	0	0	40.4851	-0.0742092	-0.0744445	-1.22711e-05	3	3.90667e-06	9.13514e-10
2	1	0	0	0	40.5851	-0.069209	-0.0694322	-8.85134e-06	3	3.90585e-06	6.14568e-10
2	1	0	0	0	40.6851	-0.0642088	-0.0644062	-7.97167e-06	3	3.90522e-06	5.13425e-10
2	1	0	0	0	40.7851	-0.0592086	-0.0594087	-5.33974e-06	3	3.90479e-06	3.17227e-10
2	1	0	0	0	40.8851	-0.0542084	-0.0544262	-4.22514e-06	3	3.90457e-06	2.29958e-10
2	1	0	0	0	40.9851	-0.0492081	-0.0493948	-1.92e-06	3	3.90458e-06	9.48379e-11
2	1	0	0	0	41.0851	-0.0442079	-0.044391	2.11092e-06	3	3.90478e-06	-9.37058e-11
2	1	0	0	0	41.1851	-0.0392077	-0.0393692	4.67219e-06	3	3.90521e-06	-1.8394e-10
2	1	0	0	0	41.2851	-0.0342075	-0.0343697	4.97248e-06	3	3.9059e-06	-1.70902e-10
2	1	0	0	0	41.3851	-0.0292073	-0.0293468	8.772e-06	3	3.90687e-06	-2.5743e-10
2	1	0	0	0	41.4851	-0.0242071	-0.0243356	1.24196e-05	3	3.90817e-06	-3.02238e-10
2	1	0	0	0	41.5851	-0.0192069	-0.0193922	1.69486e-05	3	3.90986e-06	-3.28672e-10
2	1	0	0	0	41.6851	-0.0142067	-0.0144054	2.14706e-05	3	3.91202e-06	-3.09292e-10
2	1	0	0	0	41.7851	-0.00920652	-0.00940795	2.78014e-05	3	3.91476e-06	-2.61554e-10
2	1	0	0	0	41.8851	-0.00420631	-0.00440523	3.69389e-05	3	3.91822e-06	-1.62724e-10
2	1	0	0	0	41.9851	0.000793888	0.000608105	4.70657e-05	3	3.92265e-06	2.86209e-11
2	1	0	0	0	42.0851	0.00579409	0.00561931	6.06422e-05	3	3.92819e-06	3.40768e-10
2	1	0	0	0	42.1851	0.0107943	0.010657	7.67765e-05	3	3.9352e-06	8.18209e-10
2	1	0	0	0	42.2851	0.0157945	0.0156979	9.6009e-05	3	3.94409e-06	1.50714e-09
2	1	0	0	0	42.3851	0.0207947	0.0205989	0.000123035	3	3.95532e-06	2.53438e-09
2	1	0	0	0	42.4851	0.0257949	0.0256345	0.000156736	3	3.9695e-06	4.01784e-09
2	1	0	0	0	42.5851	0.0307951	0.0306361	0.000197181	3	3.98729e-06	6.04086e-09
2	1	0	0	0	42.6851	0.0357953	0.0356526	0.000243975	3	4.00941e-06	8.69834e-09
2	1	0	0	0	42.7851	0.0407955	0.0406236	0.000297707	3	4.03666e-06	1.20939e-08
2	1	0	0	0	42.8851	0.0457957	0.0455743	0.000359529	3	4.06971e-06	1.63853e-08
2	1	0	0	0	42.9851	0.0507959	0.0506226	0.000427524	3	4.1092e-06	2.16424e-08
2	1	0	0	0	43.0851	0.0557961	0.0555978	0.000495386	3	4.15553e-06	2.75424e-08
2	1	0	0	0	43.1851	0.0607963	0.0606451	0.000562996	3	4.20871e-06	3.4143e-08
2	1	0	0	0	43.2851	0.0657965	0.0656202	0.000625922	3	4.26852e-06	4.10732e-08
2	1	0	0	0	43.3851	0.0707967	0.0706442	0.000682225	3	4.33429e-06	4.81952e-08
2	1	0	0	0	43.4851	0.0757969	0.0756363	0.000728032	3	4.40511e-06	5.50657e-08
2	1	0	0	0	43.5851	0.0807971	0.0806072	0.000759224	3	4.47985e-06	6.11989e-08
2	1	0	0	0	43.6851	0.0857973	0.0856004	0.000780763	3	4.55718e-06	6.68336e-08
2	1	0	0	0	43.7851	0.0907975	0.0906784	0.000788457	3	4.63592e-06	7.1496e-08
2	1	0	0	0	43.8851	0.0957977	0.0956196	0.000786947	3	4.71495e-06	7.52476e-08
2	1	0	0	0	43.9851	0.100798	0.100638	0.000776545	3	4.79335e-06	7.81501e-08
2	1	0	0	0	44.0851	0.105798	0.105613	0.000759773	3	4.87046e-06	8.02422e-08
2	1	0	0	0	44.1851	0.110798	0.110676	0.000740941	3	4.9458e-06	8.20041e-08
2	1	0	0	0	44.2851	0.115798	0.115606	0.000719552	3	5.01908e-06	8.31847e-08
2	1	0	0	0	44.3851	0.120799	0.120593	0.000697511	3	5.09014e-06	8.41149e-08
2	1	0	0	0	44.4851	0.125799	0.125626	0.000675413	3	5.15897e-06	8.48498e-08
2	1	0	0	0	44.5851	0.130799	0.130603	0.000653319	3	5.22562e-06	8.53252e-08
2	1	0	0	0	44.6851	0.135799	0.135599	0.000634111	3	5.29016e-06	8.59849e-08
2	1	0	0	0	44.7851	0.1408	0.140652	0.000615109	3	5.35271e-06	8.6516e-08
2	1	0	0	0	44.8851	0.1458	0.145643	0.000596092	3	5.41341e-06	8.68164e-08
2	1	0	1	0	44.9853	0.1508	0.150568	0.000579622	3	5.47248e-06	8.72725e-08
2	1	0	1	0	45.0853	0.1558	0.155618	0.000564961	3	5.5299e-06	8.79183e-08
2	1	0	1	0	45.1853	0.1608	0.160599	0.000552107	3	5.58583e-06	8.86677e-08
2	1	0	1	0	45.2853	0.165801	0.165587	0.000537892	3	5.64043e-06	8.90678e-08
2	1	0	1	0	45.3853	0.170801	0.170571	0.000526299	3	5.6938e-06	8.97717e-08
2	1	0	1	0	45.4853	0.175801	0.175645	0.000514196	3	5.74603e-06	9.03161e-08
2	1	0	1	0	45.5853	0.180801	0.180566	0.000505023	3	5.79723e-06	9.11902e-08
2	1	0	1	0	45.6853	0.185801	0.185655	0.000496769	3	5.84747e-06	9.22276e-08
2	1	0	1	0	45.7853	0.190802	0.190622	0.000487114	3	5.89684e-06	9.28544e-08
2	1	0	1	0	45.8853	0.195802	0.195671	0.000480135	3	5.94541e-06	9.39484e-08
2	1	0	1	0	45.9853	0.200802	0.20063	0.00047252	3	5.99325e-06	9.48018e-08
2	1	0	1	0	46.0853	0.205802	0.205641	0.000466995	3	6.04043e-06	9.60334e-08
2	1	0	1	0	46.1853	0.210802	0.21066	0.000460515	3	6.087e-06	9.70122e-08
2	1	0	1	0	46.2853	0.215803	0.215664	0.000455396	3	6.133e-06	9.82125e-08
2	1	0	1	0	46.3853	0.220803	0.220638	0.000450417	3	6.17851e-06	9.93791e-08
2	1	0	1	0	46.4853	0.225803	0.225601	0.000444535	3	6.22355e-06	1.00288e-07
2	1	0	1	0	46.5853	0.230803	0.230651	0.000442622	3	6.26817e-06	1.02091e-07
2	1	0	1	0	46.6853	0.235803	0.235614	0.000439176	3	6.31239e-06	1.03476e-07
2	1	0	1	0	46.7853	0.240804	0.240591	0.000435388	3	6.35629e-06	1.0475e-07
2	1	0	1	0	46.8853	0.245804	0.245637	0.00043253	3	6.3999e-06	1.06245e-07
2	1	0	1	0	46.9853	0.250804	0.250609	0.000431025	3	6.44324e-06	1.08019e-07
2	1	0	1	0	47.0853	0.255804	0.255604	0.000429165	3	6.4864e-06	1.09696e-07
2	1	0	1	0	47.1853	0.260804	0.260652	0.000427293	3	6.52938e-06	1.11375e-07
2	1	0	1	0	47.2853	0.265805	0.26568	0.000425428	3	6.57224e-06	1.13028e-07
2	1	0	1	0	47.3853	0.270805	0.270635	0.000425663	3	6.61505e-06	1.15199e-07
2	1	0	1	0	47.4853	0.275805	0.275663	0.000425742	3	6.65783e-06	1.17361e-07
2	1	0	1	0	47.5853	0.280805	0.280669	0.000427461	3	6.70065e-06	1.19975e-07
2	1	0	1	0	47.6853	0.285805	0.285636	0.00042683	3	6.74355e-06	1.21918e-07
2	1	0	1	0	47.7853	0.290806	0.290644	0.000428895	3	6.78658e-06	1.24656e-07
2	1	0	1	0	47.8853	0.295806	0.295614	0.000431518	3	6.8298e-06	1.27563e-07
2	0	0	1	0	47.9749	0.299706	0.299477	0.000346671	3	6.86817e-06	1.0382e-07
2	0	0	1	0	48.0749	0.294706	0.294511	0.000305498	3	6.90018e-06	8.99725e-08
2	0	0	1	0	48.1749	0.289706	0.289487	0.000285072	3	6.92951e-06	8.25244e-08
2	0	0	1	0	48.2749	0.284705	0.284486	0.000270375	3	6.95713e-06	7.6918e-08
2	0	0	1	0	48.3749	0.279705	0.279449	0.000258634	3	6.98341e-06	7.22751e-08
2	0	0	1	0	48.4749	0.274705	0.274532	0.000248408	3	7.00858e-06	6.81959e-08
2	0	0	1	0	48.5749	0.269705	0.269491	0.000240037	3	7.03283e-06	6.46878e-08
2	0	0	1	0	48.6749	0.264705	0.26448	0.000232636	3	7.05625e-06	6.15277e-08
2	0	0	1	0	48.7749	0.259704	0.259554	0.000224975	3	7.07894e-06	5.83933e-08
2	0	0	1	0	48.8749	0.254704	0.254502	0.000217814	3	7.10096e-06	5.54341e-08
2	0	0	1	0	48.9749	0.249704	0.249435	0.000212171	3	7.1224e-06	5.29228e-08
2	0	0	1	0	49.0749	0.244704	0.2445	0.000208099	3	7.14329e-06	5.08803e-08
2	0	0	1	0	49.1749	0.239703	0.239511	0.000202897	3	7.16367e-06	4.85962e-08
2	0	0	1	0	49.2749	0.234703	0.234501	0.000198753	3	7.18358e-06	4.66079e-08
2	0	0	1	0	49.3749	0.229703	0.229551	0.000193148	3	7.20304e-06	4.43375e-08
2	0	0	1	0	49.4749	0.224703	0.22454	0.000189478	3	7.22207e-06	4.25454e-08
2	0	0	1	0	49.5749	0.219703	0.219532	0.000186046	3	7.24069e-06	4.0843e-08
2	0	0	1	0	49.6749	0.214702	0.214472	0.0001822	3	7.25891e-06	3.90769e-08
2	0	0	1	0	49.7749	0.209702	0.209533	0.000177417	3	7.27676e-06	3.71747e-08
2	0	0	1	0	49.8749	0.204702	0.204522	0.00017369	3	7.29422e-06	3.55234e-08
2	0	0	1	0	49.9749	0.199702	0.199509	0.000169758	3	7.31132e-06	3.38681e-08
2	0	0	1	0	50.0749	0.194702	0.194485	0.000167158	3	7.32806e-06	3.25096e-08
2	0	0	1	0	50.1749	0.189701	0.18943	0.000161502	3	7.34444e-06	3.05933e-08
2	0	0	1	0	50.2749	0.184701	0.184479	0.00015943	3	7.36047e-06	2.94115e-08
2	0	0	1	0	50.3749	0.179701	0.17949	0.000155729	3	7.37615e-06	2.79519e-08
2	0	0	1	0	50.4749	0.174701	0.174493	0.000153058	3	7.39144e-06	2.67076e-08
2	0	0	1	0	50.5749	0.169701	0.169544	0.000148967	3	7.40636e-06	2.52565e-08
2	0	0	1	0	50.6749	0.1647	0.164469	0.000143366	3	7.42092e-06	2.35793e-08
2	0	0	1	0	50.7749	0.1597	0.159476	0.000141153	3	7.43507e-06	2.25105e-08
2	0	0	1	0	50.8749	0.1547	0.154496	0.000136083	3	7.44883e-06	2.10243e-08
2	0	0	1	0	50.9749	0.1497	0.149508	0.000131978	3	7.46211e-06	1.97318e-08
2	0	0	0	0	51.0751	0.1447	0.144457	0.0001272	3	7.475e-06	1.8375e-08
2	0	0	0	0	51.1751	0.139699	0.139425	0.000121662	3	7.48736e-06	1.69628e-08
2	0	0	0	0	51.2751	0.134699	0.134455	0.000117752	3	7.49916e-06	1.58323e-08
2	0	0	0	0	51.3751	0.129699	0.129522	0.000109962	3	7.51037e-06	1.42425e-08
2	0	0	0	0	51.4751	0.124699	0.124482	0.000103424	3	7.52088e-06	1.28744e-08
2	0	0	0	0	51.5751	0.119699	0.119497	9.43662e-05	3	7.53063e-06	1.12765e-08
2	0	0	0	0	51.6751	0.114698	0.114531	8.56102e-05	3	7.53947e-06	9.80504e-09
2	0	0	0	0	51.7751	0.109698	0.109443	7.25106e-05	3	7.54723e-06	7.93575e-09
2	0	0	0	0	51.8751	0.104698	0.104482	5.92468e-05	3	7.55374e-06	6.19024e-09
2	0	0	0	0	51.9751	0.0996979	0.0995092	4.24766e-05	3	7.55873e-06	4.22681e-09
2	0	0	0	0	52.0751	0.0946977	0.0945129	2.28961e-05	3	7.56187e-06	2.16398e-09
2	0	0	0	0	52.1751	0.0896975	0.0895239	-3.25893e-06	3	7.56276e-06	-2.91752e-10
2	0	0	0	0	52.2751	0.0846973	0.0844904	-3.203e-05	3	7.56089e-06	-2.70623e-09
2	0	0	0	0	52.3751	0.0796971	0.0795354	-6.95677e-05	3	7.5557e-06	-5.53309e-09
2	0	0	0	0	52.4751	0.0746969	0.0744861	-0.000113426	3	7.5465e-06	-8.44862e-09
2	0	0	0	0	52.5751	0.0696967	0.069513	-0.000165064	3	7.53254e-06	-1.14741e-08
2	0	0	0	0	52.6751	0.0646964	0.0645389	-0.000223534	3	7.51307e-06	-1.44266e-08
2	0	0	0	0	52.7751	0.0596963	0.0594726	-0.000289761	3	7.4873e-06	-1.72329e-08
2	0	0	0	0	52.8751	0.0546961	0.054472	-0.000360189	3	7.45467e-06	-1.96202e-08
2	0	0	0	0	52.9751	0.0496959	0.0494767	-0.00043497	3	7.41476e-06	-2.15208e-08
2	0	0	0	0	53.0751	0.0446957	0.0444506	-0.000506348	3	7.36759e-06	-2.25075e-08
2	0	0	0	0	53.1751	0.0396955	0.0395051	-0.000569954	3	7.31364e-06	-2.25161e-08
2	0	0	0	0	53.2751	0.0346953	0.0344844	-0.000623211	3	7.25377e-06	-2.1491e-08
2	0	0	0	0	53.3751	0.0296951	0.0294859	-0.000663441	3	7.18928e-06	-1.95621e-08
2	0	0	0	0	53.4751	0.0246949	0.0244853	-0.000688147	3	7.1217e-06	-1.68495e-08
2	0	0	0	0	53.5751	0.0196946	0.0194815	-0.000693616	3	7.05258e-06	-1.35127e-08
2	0	0	0	0	53.6751	0.0146944	0.0145032	-0.0006874	3	6.98341e-06	-9.96947e-09
2	0	0	0	0	53.7751	0.00969425	0.00943576	-0.000670073	3	6.91536e-06	-6.32265e-09
2	0	0	0	0	53.8751	0.00469405	0.00442985	-0.000648276	3	6.8493e-06	-2.87177e-09
2	0	0	0	0	53.9751	-0.000306156	-0.000525168	-0.000620978	3	6.78577e-06	3.26118e-10
2	0	0	0	0	54.0751	-0.00530636	-0.00553744	-0.00059172	3	6.72495e-06	3.27661e-09
2	0	0	0	0	54.1751	-0.0103066	-0.010607	-0.000563537	3	6.66704e-06	5.97741e-09
2	0	0	0	0	54.2751	-0.0153068	-0.0155906	-0.000537573	3	6.61193e-06	8.38108e-09
2	0	0	0	0	54.3751	-0.020307	-0.0205711	-0.000510114	3	6.55945e-06	1.04936e-08
2	0	0	0	0	54.4751	-0.0253072	-0.0255643	-0.000488355	3	6.50941e-06	1.24844e-08
2	0	0	0	0	54.5751	-0.0303074	-0.0305543	-0.000467531	3	6.46157e-06	1.42851e-08
2	0	0	0	0	54.6751	-0.0353076	-0.0355708	-0.000446955	3	6.41575e-06	1.58985e-08
2	0	0	0	0	54.7751	-0.0403078	-0.0405311	-0.00043019	3	6.37174e-06	1.74361e-08
2	0	0	0	0	54.8751	-0.045308	-0.0455359	-0.000414312	3	6.32936e-06	1.88661e-08
2	0	0	0	0	54.9751	-0.0503082	-0.0505588	-0.000401147	3	6.28845e-06	2.02815e-08
2	0	0	0	0	55.0751	-0.0553084	-0.0556103	-0.000387747	3	6.24883e-06	2.15627e-08
2	0	0	0	0	55.1751	-0.0603086	-0.060559	-0.000375232	3	6.21044e-06	2.27237e-08
2	0	0	0	0	55.2751	-0.0653088	-0.065584	-0.000366804	3	6.17313e-06	2.40565e-08
2	0	0	0	0	55.3751	-0.070309	-0.0705093	-0.000356459	3	6.13683e-06	2.51337e-08
2	0	0	0	0	55.4751	-0.0753092	-0.0755438	-0.000347743	3	6.10145e-06	2.62699e-08
2	0	0	0	0	55.5751	-0.0803094	-0.0805953	-0.000339706	3	6.06689e-06	2.73787e-08
2	0	0	0	0	55.6751	-0.0853096	-0.085544	-0.000332264	3	6.03313e-06	2.84232e-08
2	0	0	0	0	55.7751	-0.0903098	-0.090552	-0.000325842	3	6.00008e-06	2.95056e-08
2	0	0	0	0	55.8751	-0.09531	-0.095524	-0.000319371	3	5.9677e-06	3.05076e-08
2	0	0	1	0	55.9753	-0.10031	-0.100539	-0.000312103	3	5.93589e-06	3.13786e-08
2	0	0	1	0	56.0753	-0.10531	-0.105539	-0.000307669	3	5.90471e-06	3.24711e-08
2	0	0	1	0	56.1753	-0.110311	-0.110556	-0.000301601	3	5.87406e-06	3.33437e-08
2	0	0	1	0	56.2753	-0.115311	-0.11552	-0.000297157	3	5.84393e-06	3.43276e-08
2	0	0	1	0	56.3753	-0.120311	-0.120576	-0.00029246	3	5.81427e-06	3.52636e-08
2	0	0	1	0	56.4753	-0.125311	-0.125513	-0.000288387	3	5.78506e-06	3.61963e-08
2	0	0	1	0	56.5753	-0.130311	-0.130559	-0.000284762	3	5.75625e-06	3.71783e-08
2	0	0	1	0	56.6753	-0.135312	-0.135577	-0.000280525	3	5.72785e-06	3.80326e-08
2	0	0	1	0	56.7753	-0.140312	-0.140522	-0.000276962	3	5.69982e-06	3.89193e-08
2	0	0	1	0	56.8753	-0.145312	-0.145571	-0.000273581	3	5.67211e-06	3.98256e-08
2	0	0	1	0	56.9753	-0.150312	-0.150574	-0.000270902	3	5.64472e-06	4.07908e-08
2	0	0	1	0	57.0753	-0.155312	-0.155549	-0.000268361	3	5.61761e-06	4.17434e-08
2	0	0	1	0	57.1753	-0.160313	-0.160523	-0.000264304	3	5.59078e-06	4.2427e-08
2	0	0	1	0	57.2753	-0.165313	-0.16556	-0.000261656	3	5.5642e-06	4.33198e-08
2	0	0	1	0	57.3753	-0.170313	-0.170514	-0.000261179	3	5.5378e-06	4.45347e-08
2	0	0	1	0	57.4753	-0.175313	-0.175525	-0.000259681	3	5.51161e-06	4.55806e-08
2	0	0	1	0	57.5753	-0.180313	-0.180521	-0.000258157	3	5.48557e-06	4.66026e-08
2	0	0	1	0	57.6753	-0.185314	-0.185529	-0.000256595	3	5.45966e-06	4.76058e-08
2	0	0	1	0	57.7753	-0.190314	-0.190521	-0.000255099	3	5.43386e-06	4.86017e-08
2	0	0	1	0	57.8753	-0.195314	-0.195558	-0.000255824	3	5.40814e-06	5.00285e-08
2	1	0	1	1	57.9692	-0.199989	-0.200181	-0.000226724	3	5.38406e-06	4.53857e-08
2	1	0	0	1	58.0647	-0.195214	-0.195429	-0.000125834	3	5.37085e-06	2.45917e-08
2	1	0	0	1	58.1647	-0.190214	-0.190382	-0.000112906	3	5.35917e-06	2.14953e-08
2	1	0	0	1	58.2647	-0.185214	-0.185371	-0.000101165	3	5.34873e-06	1.8753e-08
2	1	0	0	1	58.3647	-0.180213	-0.180415	-9.08633e-05	3	5.33927e-06	1.63931e-08
2	1	0	0	1	58.4647	-0.175213	-0.175409	-8.38419e-05	3	5.3306e-06	1.47066e-08
2	1	0	0	1	58.5647	-0.170213	-0.170427	-7.88536e-05	3	5.32261e-06	1.34388e-08
2	1	0	0	1	58.6647	-0.165213	-0.165422	-7.28337e-05	3	5.31524e-06	1.20483e-08
2	1	0	0	1	58.7647	-0.160213	-0.160414	-6.87746e-05	3	5.30839e-06	1.10324e-08
2	1	0	0	1	58.8647	-0.155212	-0.155375	-6.3781e-05	3	5.30205e-06	9.91e-09
2	1	0	0	1	58.9647	-0.150212	-0.150363	-5.9743e-05	3	5.29617e-06	8.98314e-09
2	1	0	0	1	59.0647	-0.145212	-0.145387	-5.59858e-05	3	5.2907e-06	8.13961e-09
2	1	0	0	1	59.1647	-0.140212	-0.140421	-5.12908e-05	3	5.28561e-06	7.20232e-09
2	1	0	0	1	59.2647	-0.135212	-0.13543	-4.69207e-05	3	5.28089e-06	6.35448e-09
2	1	0	0	1	59.3647	-0.130211	-0.130447	-4.39655e-05	3	5.27652e-06	5.73516e-09
2	1	0	0	1	59.4647	-0.125211	-0.12543	-4.18335e-05	3	5.27247e-06	5.24718e-09
2	1	0	0	1	59.5647	-0.120211	-0.120459	-3.74034e-05	3	5.26875e-06	4.50558e-09
2	1	0	0	1	59.6647	-0.115211	-0.115426	-3.41426e-05	3	5.26532e-06	3.94093e-09
2	1	0	0	1	59.7647	-0.110211	-0.110446	-3.28938e-05	3	5.26218e-06	3.63299e-09
2	1	0	0	1	59.8647	-0.10521	-0.105426	-2.83912e-05	3	5.2593e-06	2.99316e-09
2	1	0	0	1	59.9647	-0.10021	-0.100402	-2.69763e-05	3	5.25668e-06	2.70847e-09
2	1	0	1	1	60.0649	-0.09521	-0.0953968	-2.3523e-05	3	5.25429e-06	2.24402e-09
2	1	0	1	1	60.1649	-0.0902098	-0.0904397	-2.15146e-05	3	5.25215e-06	1.94578e-09
2	1	0	1	1	60.2649	-0.0852096	-0.0854496	-2.01262e-05	3	5.25024e-06	1.71978e-09
2	1	0	1	1	60.3649	-0.0802094	-0.08043	-1.74007e-05	3	5.24854e-06	1.39954e-09
2	1	0	1	1	60.4649	-0.0752092	-0.075459	-1.66888e-05	3	5.24707e-06	1.25932e-09
2	1	0	1	1	60.5649	-0.070209	-0.0703916	-1.32585e-05	3	5.24578e-06	9.33287e-10
2	1	0	1	1	60.6649	-0.0652088	-0.0654313	-1.19478e-05	3	5.2447e-06	7.81762e-10
2	1	0	1	1	60.7649	-0.0602086	-0.0604222	-8.79658e-06	3	5.24383e-06	5.31509e-10
2	1	0	1	1	60.8649	-0.0552084	-0.0554121	-8.76478e-06	3	5.24316e-06	4.85675e-10
2	1	0	1	1	60.9464	-0.0511332	-0.0513581	-2.12002e-05	3	5.24279e-06	1.0888e-09