File: AutoAnalysis Examples/EC/C003A-20ppb-A_C01.mpt
EC-Lab ASCII FILE
Nb header lines : 59

Cyclic Voltammetry

Run on channel : 1 (SN 22398)
User :
CE vs. WE compliance from -10 V to 10 V
Electrode connection : standard
Ewe ctrl range : min = -1.00 V, max = 1.00 V
Safety Limits :
	Ewe min = -2.00 V
	Ewe max = 2.00 V
	|I| = 50.000 mA
	for t > 10 ms
Acquisition started on : 11/21/2018 10:11:07
Technique started on : 11/21/2018 10:11:07
Saved on :
	File : C003A-20ppb-A_C01.mpr
	Directory : \\ECCOMPUTER\Users\Lab User\Google Drive\Electrochemical Data\EC-Lab\Data\FREDsense\Tim\2018.11.21 - EC comparison to High Throughput\
	Host : 172.16.1.30
Device : SP-50 (SN 0301030103010301)
Address : USB
EC-Lab for windows v11.02 (software)
Internet server v11.02 (firmware)
Command interpretor v11.02 (firmware)
Electrode material : Au/Pd
Initial state :
Electrolyte : NaCl (0.2M)
Comments : Fe(CN)63-/Fe(CN)64- 5.10-3 M
Reference electrode : SCE Saturated Calomel Electrode (0.241 V)
Electrode surface area : 0.001 cm²
Characteristic mass : 0.001 g
Equivalent Weight : 0.000 g/eq.
Density : 0.000 g/cm3
Cycle Definition : Charge/Discharge alternance
Ei (V)              -0.100
vs.                 Ref
dE/dt               50.000
dE/dt unit          mV/s
E1 (V)              0.300
vs.                 Ref
Step percent        50
N                   10
E range min (V)     -1.000
E range max (V)     1.000
I Range             Auto
I Range min         Unset
I Range max         Unset
I Range init        Unset
Bandwidth           5
E2 (V)              -0.200
vs.                 Ref
nc cycles           2
Reverse Scan        1
Ef (V)              0.000
vs.                 Eoc

mode	ox/red	error	control changes	counter inc.	time/s	control/V	Ewe/V	<I>/mA	cycle number	(Q-Qo)/C	P/W
2	1	0	0	0	0.000000000000000E+000	-0.0985232	-0.0987782	-6.73312e-05	1	0.0000000E+000	6.65086e-09
2	1	0	0	0	0.1112	-0.0929731	-0.0931974	4.53385e-06	1	4.73217e-10	-4.22543e-10
2	1	0	1	0	0.2267	-0.087198	-0.0873745	3.83185e-05	1	3.68942e-09	-3.34806e-09
2	1	0	1	0	0.3267	-0.0821979	-0.0824078	4.53505e-05	1	8.26967e-09	-3.73724e-09
2	1	0	1	0	0.4267	-0.0771978	-0.0773563	4.86095e-05	1	1.32653e-08	-3.76025e-09
2	1	0	1	0	0.5267	-0.0721977	-0.0723854	5.11019e-05	1	1.85895e-08	-3.69903e-09
2	1	0	1	0	0.6267	-0.0671976	-0.0674092	5.48661e-05	1	2.41718e-08	-3.69848e-09
2	1	0	1	0	0.7267	-0.0621975	-0.0624796	5.67349e-05	1	3.00112e-08	-3.54478e-09
2	1	0	1	0	0.8267	-0.0571973	-0.0573624	5.85314e-05	1	3.60515e-08	-3.3575e-09
2	1	0	1	0	0.9267	-0.0521972	-0.0523374	6.24757e-05	1	4.23297e-08	-3.26982e-09
2	1	0	1	0	1.0267	-0.0471971	-0.047323	6.28007e-05	1	4.88452e-08	-2.97192e-09
2	1	0	1	0	1.1267	-0.042197	-0.0423775	6.50017e-05	1	5.55718e-08	-2.75461e-09
2	1	0	1	0	1.2267	-0.0371969	-0.0373419	6.77431e-05	1	6.25604e-08	-2.52966e-09
2	1	0	1	0	1.3267	-0.0321968	-0.0323742	6.99264e-05	1	6.98193e-08	-2.26381e-09
2	1	0	1	0	1.4267	-0.0271967	-0.0273831	7.53068e-05	1	7.74145e-08	-2.06213e-09
2	1	0	1	0	1.5267	-0.0221966	-0.0223751	7.83715e-05	1	8.54038e-08	-1.75357e-09
2	1	0	1	0	1.6267	-0.0171965	-0.0173066	8.40417e-05	1	9.38782e-08	-1.45448e-09
2	1	0	1	0	1.7267	-0.0121964	-0.0123866	9.16637e-05	1	1.02945e-07	-1.1354e-09
2	1	0	1	0	1.8267	-0.00719624	-0.00736899	9.99957e-05	1	1.1278e-07	-7.36868e-10
2	1	0	1	0	1.9267	-0.00219613	-0.00241397	0.00011061	1	1.23608e-07	-2.67009e-10
2	1	0	1	0	2.0267	0.00280397	0.00263647	0.000126831	1	1.3581e-07	3.34385e-10
2	1	0	1	0	2.1267	0.00780408	0.00764556	0.000145866	1	1.49702e-07	1.11522e-09
2	1	0	1	0	2.2267	0.0128042	0.0126515	0.000172137	1	1.6586e-07	2.17779e-09
2	1	0	1	0	2.3267	0.0178043	0.0176584	0.000204877	1	1.84963e-07	3.61781e-09
2	1	0	1	0	2.4267	0.0228044	0.0226495	0.000248679	1	2.07879e-07	5.63244e-09
2	1	0	1	0	2.5267	0.0278045	0.0276607	0.00030269	1	2.35653e-07	8.37261e-09
2	1	0	1	0	2.6267	0.0328046	0.0326359	0.000369827	1	2.69477e-07	1.20696e-08
2	1	0	1	0	2.7267	0.0378047	0.037628	0.000447902	1	3.1064e-07	1.68536e-08
2	1	0	1	0	2.8267	0.0428048	0.0426413	0.000542706	1	3.6047e-07	2.31417e-08
2	1	0	1	0	2.9267	0.0478049	0.0476271	0.000645001	1	4.20142e-07	3.07195e-08
2	1	0	1	0	3.0267	0.0528051	0.0527136	0.000758376	1	4.90643e-07	3.99767e-08
2	1	0	1	0	3.1267	0.0578052	0.0577004	0.000867991	1	5.72278e-07	5.00834e-08
2	1	0	1	0	3.2267	0.0628053	0.0626872	0.000975172	1	6.64877e-07	6.11308e-08
2	1	0	1	0	3.3267	0.0678054	0.0676422	0.00107108	1	7.67643e-07	7.24502e-08
2	1	0	1	0	3.4267	0.0728055	0.072663	0.0011477	1	8.79059e-07	8.33955e-08
2	1	0	1	0	3.5267	0.0778056	0.0776625	0.00120504	1	9.97252e-07	9.35866e-08
2	1	0	1	0	3.6267	0.0828057	0.0826907	0.00124104	1	1.12008e-06	1.02622e-07
2	1	0	1	0	3.7267	0.0878058	0.08765	0.00125696	1	1.24541e-06	1.10173e-07
2	1	0	1	0	3.8267	0.0928059	0.0926898	0.00125395	1	1.37141e-06	1.16228e-07
2	1	0	1	0	3.9267	0.097806	0.0977063	0.00123939	1	1.49649e-06	1.21096e-07
2	1	0	1	0	4.0267	0.102806	0.102734	0.00121422	1	1.61949e-06	1.24743e-07
2	1	0	1	0	4.1267	0.107806	0.107661	0.00118293	1	1.73967e-06	1.27356e-07
2	1	0	1	0	4.2267	0.112806	0.112681	0.00115002	1	1.85658e-06	1.29585e-07
2	1	0	1	0	4.3267	0.117806	0.11765	0.00111361	1	1.97005e-06	1.31017e-07
2	1	0	1	0	4.4267	0.122807	0.122654	0.00107992	1	2.08003e-06	1.32457e-07
2	1	0	1	0	4.5267	0.127807	0.127671	0.00104703	1	2.18664e-06	1.33675e-07
2	1	0	1	0	4.6267	0.132807	0.132596	0.00101645	1	2.29005e-06	1.34777e-07
2	1	0	1	0	4.7267	0.137807	0.137644	0.000986961	1	2.39047e-06	1.3585e-07
2	1	0	1	0	4.8267	0.142807	0.142651	0.000959973	1	2.48815e-06	1.36941e-07
2	1	0	1	0	4.9267	0.147807	0.14766	0.000937442	1	2.58328e-06	1.38423e-07
2	1	0	1	0	5.0267	0.152807	0.152669	0.000919121	1	2.67613e-06	1.40322e-07
2	1	0	1	0	5.1267	0.157807	0.157676	0.000892279	1	2.76686e-06	1.40691e-07
2	1	0	1	0	5.2267	0.162807	0.162686	0.000875136	1	2.85566e-06	1.42372e-07
2	1	0	1	0	5.3267	0.167808	0.167583	0.000859837	1	2.94271e-06	1.44094e-07
2	1	0	1	0	5.4267	0.172808	0.17265	0.000844482	1	3.02816e-06	1.458e-07
2	1	0	1	0	5.5267	0.177808	0.177684	0.000829319	1	3.11214e-06	1.47357e-07
2	1	0	1	0	5.6267	0.182808	0.182713	0.000815814	1	3.19481e-06	1.4906e-07
2	1	0	1	0	5.7267	0.187808	0.187632	0.000805876	1	3.27626e-06	1.51208e-07
2	1	0	1	0	5.8267	0.192808	0.192649	0.000796408	1	3.35662e-06	1.53427e-07
2	1	0	1	0	5.9267	0.197808	0.19765	0.000785866	1	3.43598e-06	1.55326e-07
2	1	0	1	0	6.0267	0.202808	0.202635	0.000777956	1	3.51443e-06	1.57641e-07
2	1	0	1	0	6.1267	0.207808	0.207648	0.000768836	1	3.59209e-06	1.59647e-07
2	1	0	1	0	6.2267	0.212809	0.212696	0.00076258	1	3.66901e-06	1.62198e-07
2	1	0	1	0	6.3267	0.217809	0.217731	0.000755212	1	3.74527e-06	1.64433e-07
2	1	0	1	0	6.4267	0.222809	0.222656	0.000750976	1	3.82092e-06	1.67209e-07
2	1	0	1	0	6.5267	0.227809	0.227649	0.000746041	1	3.89603e-06	1.69835e-07
2	1	0	1	0	6.6267	0.232809	0.232624	0.000741307	1	3.97066e-06	1.72446e-07
2	1	0	1	0	6.7267	0.237809	0.237664	0.000737672	1	4.04486e-06	1.75318e-07
2	1	0	1	0	6.8267	0.242809	0.242658	0.000732855	1	4.11868e-06	1.77833e-07
2	1	0	1	0	6.9267	0.247809	0.247627	0.000730039	1	4.19215e-06	1.80777e-07
2	1	0	1	0	7.0267	0.252809	0.252665	0.000729704	1	4.26534e-06	1.8437e-07
2	1	0	1	0	7.1267	0.257809	0.257702	0.000725897	1	4.33833e-06	1.87065e-07
2	1	0	1	0	7.2267	0.26281	0.262645	0.000723212	1	4.41107e-06	1.89948e-07
2	1	0	1	0	7.3267	0.26781	0.26767	0.000723412	1	4.48367e-06	1.93635e-07
2	1	0	1	0	7.4267	0.27281	0.272718	0.000723011	1	4.55624e-06	1.97178e-07
2	1	0	1	0	7.5267	0.27781	0.277702	0.000721039	1	4.62863e-06	2.00234e-07
2	1	0	1	0	7.6267	0.28281	0.282685	0.000720509	1	4.70091e-06	2.03677e-07
2	1	0	1	0	7.7267	0.28781	0.287727	0.000720278	1	4.77324e-06	2.07244e-07
2	1	0	1	0	7.8267	0.29281	0.292654	0.000724065	1	4.84572e-06	2.119e-07
2	1	0	1	0	7.9267	0.29781	0.297678	0.000721285	1	4.91832e-06	2.1471e-07
2	0	0	1	0	8.0163	0.29771	0.297579	0.000596019	1	4.97809e-06	1.77363e-07
2	0	0	1	0	8.1163	0.29271	0.29257	0.000547765	1	5.03492e-06	1.60259e-07
2	0	0	1	0	8.2163	0.28771	0.287534	0.000517771	1	5.08796e-06	1.48877e-07
2	0	0	1	0	8.3163	0.28271	0.282503	0.000493079	1	5.13818e-06	1.39296e-07
2	0	0	1	0	8.4163	0.27771	0.277482	0.000472772	1	5.18616e-06	1.31186e-07
2	0	0	1	0	8.5163	0.27271	0.272552	0.000454087	1	5.23233e-06	1.23762e-07
2	0	0	1	0	8.6163	0.26771	0.26752	0.000439485	1	5.27688e-06	1.17571e-07
2	0	0	1	0	8.7163	0.26271	0.262517	0.000428183	1	5.32007e-06	1.12406e-07
2	0	0	1	0	8.8163	0.257709	0.257573	0.000415864	1	5.36206e-06	1.07115e-07
2	0	0	1	0	8.9163	0.252709	0.252537	0.000406767	1	5.40295e-06	1.02724e-07
2	0	0	1	0	9.0163	0.247709	0.247576	0.000396261	1	5.44288e-06	9.81047e-08
2	0	0	1	0	9.1163	0.242709	0.242558	0.000388699	1	5.48192e-06	9.42823e-08
2	0	0	1	0	9.2163	0.237709	0.237554	0.00038009	1	5.5201e-06	9.02917e-08
2	0	0	1	0	9.3163	0.232709	0.23254	0.000372837	1	5.55751e-06	8.66996e-08
2	0	0	1	0	9.4163	0.227709	0.227509	0.000364487	1	5.59418e-06	8.29241e-08
2	0	0	1	0	9.5163	0.222709	0.222549	0.00035837	1	5.63018e-06	7.97548e-08
2	0	0	1	0	9.6163	0.217709	0.217549	0.000351449	1	5.66551e-06	7.64575e-08
2	0	0	1	0	9.7163	0.212709	0.21251	0.000344032	1	5.7002e-06	7.31104e-08
2	0	0	1	0	9.8163	0.207708	0.207533	0.000339032	1	5.73426e-06	7.03603e-08
2	0	0	1	0	9.9163	0.202708	0.202489	0.000332277	1	5.76765e-06	6.72824e-08
2	0	0	1	0	10.0163	0.197708	0.19751	0.000326994	1	5.8005e-06	6.45844e-08
2	0	0	1	0	10.1163	0.192708	0.192549	0.000321071	1	5.83285e-06	6.18219e-08
2	0	0	1	0	10.2163	0.187708	0.187575	0.000315471	1	5.86456e-06	5.91746e-08
2	0	0	1	0	10.3163	0.182708	0.182509	0.000310532	1	5.89569e-06	5.66749e-08
2	0	0	1	0	10.4163	0.177708	0.177514	0.000304816	1	5.92626e-06	5.4109e-08
2	0	0	1	0	10.5163	0.172708	0.172526	0.000299039	1	5.95626e-06	5.15918e-08
2	0	0	1	0	10.6163	0.167708	0.167472	0.000292203	1	5.98568e-06	4.89358e-08
2	0	0	1	0	10.7163	0.162707	0.162503	0.000286697	1	6.01448e-06	4.65891e-08
2	0	0	1	0	10.8163	0.157707	0.15751	0.000279914	1	6.04268e-06	4.40892e-08
2	0	0	1	0	10.9163	0.152707	0.152559	0.00027081	1	6.07022e-06	4.13145e-08
2	0	0	1	0	11.0163	0.147707	0.147504	0.000266265	1	6.09706e-06	3.9275e-08
2	0	0	1	0	11.1163	0.142707	0.142502	0.000260455	1	6.12319e-06	3.71153e-08
2	0	0	1	0	11.2163	0.137707	0.137511	0.000250832	1	6.14851e-06	3.44921e-08
2	0	0	1	0	11.3163	0.132707	0.132512	0.000240797	1	6.17298e-06	3.19086e-08
2	0	0	1	0	11.4163	0.127707	0.127472	0.000230204	1	6.19647e-06	2.93447e-08
2	0	0	1	0	11.5163	0.122707	0.122537	0.000219028	1	6.21883e-06	2.68389e-08
2	0	0	1	0	11.6163	0.117706	0.117471	0.000205693	1	6.23991e-06	2.41631e-08
2	0	0	1	0	11.7163	0.112706	0.112472	0.000188132	1	6.25949e-06	2.11595e-08
2	0	0	1	0	11.8163	0.107706	0.107529	0.000170131	1	6.27732e-06	1.8294e-08
2	0	0	1	0	11.9163	0.102706	0.102505	0.000146886	1	6.29301e-06	1.50567e-08
2	0	0	1	0	12.0163	0.097706	0.0974858	0.000117061	1	6.30612e-06	1.14118e-08
2	0	0	1	0	12.1163	0.0927059	0.0924894	8.29094e-05	1	6.31609e-06	7.66824e-09
2	0	0	1	0	12.2163	0.0877058	0.0874687	4.11748e-05	1	6.32217e-06	3.6015e-09
2	0	0	1	0	12.3163	0.0827057	0.0825221	-7.9911e-06	1	6.32379e-06	-6.59443e-10
2	0	0	1	0	12.4163	0.0777056	0.0775205	-7.1062e-05	1	6.31971e-06	-5.50876e-09
2	0	0	1	0	12.5163	0.0727055	0.0725283	-0.000143156	1	6.30888e-06	-1.03828e-08
2	0	0	1	0	12.6163	0.0677054	0.0675299	-0.000228867	1	6.29016e-06	-1.54553e-08
2	0	0	1	0	12.7163	0.0627053	0.0625112	-0.000324091	1	6.26242e-06	-2.02593e-08
2	0	0	1	0	12.8163	0.0577052	0.0575117	-0.000428513	1	6.22463e-06	-2.46445e-08
2	0	0	1	0	12.9163	0.0527051	0.0525111	-0.000537855	1	6.17617e-06	-2.82434e-08
2	0	0	1	0	13.0163	0.0477049	0.0475052	-0.000647568	1	6.11672e-06	-3.07628e-08
2	0	0	1	0	13.1163	0.0427048	0.0425448	-0.000745113	1	6.04692e-06	-3.17007e-08
2	0	0	1	0	13.2163	0.0377047	0.0374414	-0.000829079	1	5.96792e-06	-3.10419e-08
2	0	0	1	0	13.3163	0.0327046	0.0324408	-0.000894197	1	5.88144e-06	-2.90085e-08
2	0	0	1	0	13.4163	0.0277045	0.0275155	-0.000933298	1	5.78978e-06	-2.56801e-08
2	0	0	1	0	13.5163	0.0227044	0.0225074	-0.000950816	1	5.69529e-06	-2.14004e-08
2	0	0	1	0	13.6163	0.0177043	0.0175503	-0.000945195	1	5.60021e-06	-1.65885e-08
2	0	0	1	0	13.7163	0.0127042	0.0125529	-0.000924638	1	5.50647e-06	-1.16069e-08
2	0	0	1	0	13.8163	0.00770408	0.00748548	-0.000892422	1	5.41546e-06	-6.6802e-09
2	0	0	1	0	13.9163	0.00270397	0.00245731	-0.000852201	1	5.32812e-06	-2.09412e-09
2	0	0	1	0	14.0163	-0.00229614	-0.00248287	-0.000810101	1	5.24489e-06	2.01138e-09
2	0	0	1	0	14.1163	-0.00729625	-0.00751529	-0.000767649	1	5.166e-06	5.7691e-09
2	0	0	1	0	14.2163	-0.0122964	-0.0125488	-0.000724125	1	5.09139e-06	9.08687e-09
2	0	0	1	0	14.3163	-0.0172965	-0.0175451	-0.000683701	1	5.0208e-06	1.19956e-08
2	0	0	1	0	14.4163	-0.0222966	-0.0225224	-0.00065	1	4.95394e-06	1.46396e-08
2	0	0	1	0	14.5163	-0.0272967	-0.0275251	-0.000617115	1	4.89051e-06	1.69862e-08
2	0	0	1	0	14.6163	-0.0322968	-0.0325512	-0.000588523	1	4.83017e-06	1.91571e-08
2	0	0	1	0	14.7163	-0.0372969	-0.0375221	-0.00056093	1	4.77262e-06	2.10473e-08
2	0	0	1	0	14.8163	-0.042297	-0.0425132	-0.000536405	1	4.71757e-06	2.28043e-08
2	0	0	1	0	14.9163	-0.0472971	-0.0475318	-0.000516747	1	4.6648e-06	2.45619e-08
2	0	0	1	0	15.0163	-0.0522972	-0.0525769	-0.000499848	1	4.61405e-06	2.62805e-08
2	0	0	1	0	15.1163	-0.0572973	-0.0575468	-0.000479652	1	4.56513e-06	2.76025e-08
2	0	0	1	0	15.2163	-0.0622975	-0.062522	-0.000463635	1	4.51791e-06	2.89874e-08
2	0	0	1	0	15.3163	-0.0672976	-0.0675364	-0.000449708	1	4.4722e-06	3.03717e-08
2	0	0	1	0	15.4163	-0.0722977	-0.0725836	-0.000436899	1	4.4279e-06	3.17117e-08
2	0	0	1	0	15.5163	-0.0772978	-0.0775344	-0.000423186	1	4.38487e-06	3.28115e-08
2	0	0	1	0	15.6163	-0.0822979	-0.0825318	-0.000412363	1	4.343e-06	3.40331e-08
2	0	0	1	0	15.7163	-0.087298	-0.0875049	-0.000401083	1	4.30223e-06	3.50967e-08
2	0	0	1	0	15.8163	-0.0922981	-0.0925871	-0.000391723	1	4.26245e-06	3.62685e-08
2	0	0	1	0	15.9163	-0.0972982	-0.0974817	-0.000382554	1	4.22361e-06	3.7292e-08
2	0	0	0	0	16.0165	-0.102298	-0.102489	-0.000373745	1	4.18557e-06	3.83046e-08
2	0	0	0	0	16.1165	-0.107298	-0.107566	-0.000366787	1	4.1484e-06	3.94536e-08
2	0	0	0	0	16.2165	-0.112299	-0.11255	-0.00036003	1	4.11198e-06	4.05215e-08
2	0	0	0	0	16.3165	-0.117299	-0.117554	-0.000352265	1	4.07625e-06	4.14102e-08
2	0	0	0	0	16.4165	-0.122299	-0.122542	-0.000346021	1	4.04117e-06	4.24021e-08
2	0	0	0	0	16.5165	-0.127299	-0.12745	-0.000342054	1	4.00672e-06	4.35949e-08
2	0	0	0	0	16.6165	-0.132299	-0.132539	-0.000334561	1	3.97282e-06	4.43423e-08
2	0	0	0	0	16.7165	-0.137299	-0.137511	-0.000330065	1	3.93946e-06	4.53876e-08
2	0	0	0	0	16.8165	-0.142299	-0.142515	-0.00032685	1	3.90661e-06	4.6581e-08
2	0	0	0	0	16.9165	-0.147299	-0.147563	-0.000320991	1	3.87422e-06	4.73665e-08
2	0	0	0	0	17.0165	-0.152299	-0.152509	-0.000316109	1	3.84228e-06	4.82093e-08
2	0	0	0	0	17.1165	-0.1573	-0.157558	-0.000311218	1	3.8107e-06	4.90348e-08
2	0	0	0	0	17.2165	-0.1623	-0.162519	-0.000310285	1	3.77952e-06	5.04273e-08
2	0	0	0	0	17.3165	-0.1673	-0.167573	-0.000306705	1	3.74869e-06	5.13954e-08
2	0	0	0	0	17.4165	-0.1723	-0.172519	-0.000303371	1	3.71816e-06	5.23375e-08
2	0	0	0	0	17.5165	-0.1773	-0.177517	-0.000300052	1	3.68791e-06	5.32644e-08
2	0	0	0	0	17.6165	-0.1823	-0.182516	-0.000297519	1	3.65792e-06	5.43022e-08
2	0	0	0	0	17.7165	-0.1873	-0.187511	-0.000296115	1	3.62817e-06	5.55247e-08
2	0	0	0	0	17.8165	-0.1923	-0.192488	-0.000294633	1	3.59861e-06	5.67133e-08
2	0	0	0	0	17.9165	-0.1973	-0.197495	-0.000292195	1	3.5692e-06	5.77071e-08
2	1	0	1	1	17.9959	-0.19875	-0.198958	-0.0001866	1	3.54852e-06	3.71256e-08
2	1	0	1	1	18.0959	-0.19375	-0.193896	-0.000159032	1	3.53192e-06	3.08357e-08
2	1	0	1	1	18.1959	-0.18875	-0.188966	-0.000141912	1	3.51733e-06	2.68166e-08
2	1	0	1	1	18.2959	-0.18375	-0.183978	-0.000130464	1	3.50408e-06	2.40026e-08
2	1	0	1	1	18.3959	-0.17875	-0.178926	-0.000121715	1	3.4919e-06	2.1778e-08
2	1	0	1	1	18.4959	-0.17375	-0.173928	-0.00011149	1	3.48062e-06	1.93912e-08
2	1	0	1	1	18.5959	-0.16875	-0.168952	-0.000104488	1	3.47011e-06	1.76534e-08
2	1	0	1	1	18.6959	-0.16375	-0.163978	-9.66359e-05	1	3.46031e-06	1.58462e-08
2	1	0	1	1	18.7959	-0.15875	-0.158932	-9.26827e-05	1	3.45113e-06	1.47302e-08
2	1	0	1	1	18.8959	-0.15375	-0.153898	-8.6064e-05	1	3.44256e-06	1.32451e-08
2	1	0	1	1	18.9959	-0.148749	-0.148953	-8.07313e-05	1	3.43449e-06	1.20252e-08
2	1	0	1	1	19.0959	-0.143749	-0.143871	-7.72321e-05	1	3.42692e-06	1.11114e-08
2	1	0	1	1	19.1959	-0.138749	-0.138936	-7.23268e-05	1	3.41982e-06	1.00488e-08
2	1	0	1	1	19.2959	-0.133749	-0.133909	-6.90077e-05	1	3.41313e-06	9.24073e-09
2	1	0	1	1	19.3959	-0.128749	-0.128882	-6.39064e-05	1	3.40686e-06	8.23635e-09
2	1	0	1	1	19.4959	-0.123749	-0.123983	-6.08205e-05	1	3.40098e-06	7.54069e-09
2	1	0	1	1	19.5959	-0.118749	-0.118916	-5.74166e-05	1	3.39546e-06	6.82778e-09
2	1	0	1	1	19.6959	-0.113749	-0.11395	-5.39315e-05	1	3.39032e-06	6.14548e-09
2	1	0	1	1	19.7959	-0.108748	-0.108943	-4.94979e-05	1	3.38549e-06	5.39243e-09
2	1	0	1	1	19.8959	-0.103748	-0.103943	-4.53716e-05	1	3.38098e-06	4.71607e-09
2	1	0	1	1	19.9959	-0.0987483	-0.0989882	-4.45714e-05	2	3.37678e-06	4.41204e-09
2	1	0	0	1	20.0961	-0.0937482	-0.0939674	-4.05458e-05	2	3.37285e-06	3.80998e-09
2	1	0	0	1	20.1961	-0.088748	-0.0889149	-3.77054e-05	2	3.36923e-06	3.35257e-09
2	1	0	0	1	20.2961	-0.0837479	-0.0839524	-3.58224e-05	2	3.36588e-06	3.00738e-09
2	1	0	0	1	20.3961	-0.0787478	-0.0789772	-3.23338e-05	2	3.36279e-06	2.55363e-09
2	1	0	0	1	20.4961	-0.0737477	-0.0739522	-2.9179e-05	2	3.35997e-06	2.15785e-09
2	1	0	0	1	20.5961	-0.0687476	-0.0688647	-2.72077e-05	2	3.35742e-06	1.87365e-09
2	1	0	0	1	20.6961	-0.0637475	-0.063968	-2.48973e-05	2	3.35511e-06	1.59263e-09
2	1	0	0	1	20.7961	-0.0587474	-0.0589631	-2.19492e-05	2	3.35307e-06	1.29419e-09
2	1	0	0	1	20.8961	-0.0537473	-0.0539615	-1.92625e-05	2	3.35129e-06	1.03943e-09
2	1	0	0	1	20.9961	-0.0487472	-0.0489619	-1.6468e-05	2	3.34981e-06	8.06307e-10
2	1	0	0	1	21.0961	-0.043747	-0.0438532	-1.3497e-05	2	3.3486e-06	5.91885e-10
2	1	0	0	1	21.1961	-0.0387469	-0.0388664	-1.08774e-05	2	3.3477e-06	4.22765e-10
2	1	0	0	1	21.2961	-0.0337468	-0.0339241	-7.38876e-06	2	3.34715e-06	2.50657e-10
2	1	0	0	1	21.3961	-0.0287467	-0.0289436	-2.94627e-06	2	3.34697e-06	8.52757e-11
2	1	0	0	1	21.4961	-0.0237466	-0.0239748	1.89365e-06	2	3.34728e-06	-4.53999e-11
2	1	0	0	1	21.5961	-0.0187465	-0.0189434	7.92766e-06	2	3.34809e-06	-1.50177e-10
2	1	0	0	1	21.6961	-0.0137464	-0.0139322	1.50992e-05	2	3.34957e-06	-2.10366e-10
2	1	0	0	1	21.7961	-0.00874628	-0.00888815	2.40972e-05	2	3.35186e-06	-2.1418e-10
2	1	0	0	1	21.8961	-0.00374617	-0.00396281	3.4708e-05	2	3.35517e-06	-1.37541e-10
2	1	0	0	1	21.9961	0.00125394	0.00111307	5.06144e-05	2	3.35986e-06	5.63373e-11
2	1	0	0	1	22.0961	0.00625405	0.00604901	7.00377e-05	2	3.36617e-06	4.23658e-10
2	1	0	0	1	22.1961	0.0112542	0.0111175	9.40854e-05	2	3.37464e-06	1.04599e-09
2	1	0	0	1	22.2961	0.0162543	0.0161117	0.000125826	2	3.3859e-06	2.02727e-09
2	1	0	0	1	22.3961	0.0212544	0.0210805	0.000165619	2	3.40068e-06	3.49134e-09
2	1	0	0	1	22.4961	0.0262545	0.0261161	0.000215023	2	3.41991e-06	5.61557e-09
2	1	0	0	1	22.5961	0.0312546	0.0310775	0.000274546	2	3.44461e-06	8.53219e-09
2	1	0	0	1	22.6961	0.0362547	0.0361438	0.000347991	2	3.47593e-06	1.25777e-08
2	1	0	0	1	22.7961	0.0412548	0.0410829	0.00043193	2	3.51513e-06	1.77449e-08
2	1	0	0	1	22.8961	0.0462549	0.0460952	0.000526665	2	3.56329e-06	2.42767e-08
2	1	0	0	1	22.9961	0.051255	0.0510757	0.000630828	2	3.62137e-06	3.22199e-08
2	1	0	0	1	23.0961	0.0562551	0.0560901	0.000734747	2	3.68996e-06	4.1212e-08
2	1	0	0	1	23.1961	0.0612552	0.0611426	0.000838846	2	3.7691e-06	5.12892e-08
2	1	0	0	1	23.2961	0.0662553	0.0660563	0.000935876	2	3.85835e-06	6.18205e-08
2	1	0	0	1	23.3961	0.0712555	0.0710855	0.00102143	2	3.95663e-06	7.26087e-08
2	1	0	0	1	23.4961	0.0762556	0.0761041	0.00108644	2	4.0624e-06	8.26825e-08
2	1	0	0	1	23.5961	0.0812557	0.0811122	0.00113133	2	4.1738e-06	9.17647e-08
2	1	0	0	1	23.6961	0.0862558	0.0860757	0.00115904	2	4.28882e-06	9.9765e-08
2	1	0	0	1	23.7961	0.0912559	0.0911017	0.00116811	2	4.40555e-06	1.06417e-07
2	1	0	0	1	23.8961	0.096256	0.0960832	0.00115965	2	4.52229e-06	1.11423e-07
2	1	0	0	1	23.9961	0.101256	0.101063	0.00113972	2	4.63767e-06	1.15183e-07
2	1	0	0	1	24.0961	0.106256	0.106091	0.00111372	2	4.75074e-06	1.18156e-07
2	1	0	0	1	24.1961	0.111256	0.111103	0.00108109	2	4.86083e-06	1.20113e-07
2	1	0	0	1	24.2961	0.116256	0.116069	0.0010476	2	4.96759e-06	1.21594e-07
2	1	0	0	1	24.3961	0.121257	0.121099	0.00101236	2	5.07086e-06	1.22595e-07
2	1	0	0	1	24.4961	0.126257	0.126061	0.00097959	2	5.17065e-06	1.23489e-07
2	1	0	0	1	24.5961	0.131257	0.131099	0.000945711	2	5.26712e-06	1.23982e-07
2	1	0	0	1	24.6961	0.136257	0.13608	0.000914705	2	5.3604e-06	1.24473e-07
2	1	0	0	1	24.7961	0.141257	0.141096	0.00088577	2	5.4507e-06	1.24979e-07
2	1	0	0	1	24.8961	0.146257	0.146114	0.000858371	2	5.53825e-06	1.2542e-07
2	1	0	0	1	24.9961	0.151257	0.15108	0.000835816	2	5.62325e-06	1.26275e-07
2	1	0	0	1	25.0961	0.156257	0.156098	0.00081171	2	5.70597e-06	1.26706e-07
2	1	0	0	1	25.1961	0.161257	0.161117	0.000792822	2	5.78652e-06	1.27737e-07
2	1	0	0	1	25.2961	0.166257	0.166121	0.00077301	2	5.8651e-06	1.28414e-07
2	1	0	0	1	25.3961	0.171258	0.171189	0.000756088	2	5.94188e-06	1.29434e-07
2	1	0	0	1	25.4961	0.176258	0.176108	0.000739645	2	6.01699e-06	1.30257e-07
2	1	0	0	1	25.5961	0.181258	0.181126	0.00072625	2	6.09062e-06	1.31543e-07
2	1	0	0	1	25.6961	0.186258	0.186121	0.000713015	2	6.16283e-06	1.32707e-07
2	1	0	0	1	25.7961	0.191258	0.191111	0.000699503	2	6.23375e-06	1.33683e-07
2	1	0	0	1	25.8961	0.196258	0.196117	0.000688531	2	6.30351e-06	1.35032e-07
2	1	0	0	1	25.9961	0.201258	0.201047	0.000677717	2	6.37218e-06	1.36253e-07
2	1	0	0	1	26.0961	0.206258	0.206119	0.000669475	2	6.4399e-06	1.37991e-07
2	1	0	0	1	26.1961	0.211258	0.211076	0.000660717	2	6.5067e-06	1.39461e-07
2	1	0	0	1	26.2961	0.216259	0.2161	0.000652657	2	6.57267e-06	1.41039e-07
2	1	0	0	1	26.3961	0.221259	0.221138	0.000643627	2	6.6379e-06	1.4233e-07
2	1	0	0	1	26.4961	0.226259	0.226117	0.000638616	2	6.70244e-06	1.44402e-07
2	1	0	0	1	26.5961	0.231259	0.231109	0.000632877	2	6.76635e-06	1.46264e-07
2	1	0	0	1	26.6961	0.236259	0.236082	0.000627223	2	6.82969e-06	1.48076e-07
2	1	0	0	1	26.7961	0.241259	0.241058	0.000621213	2	6.89252e-06	1.49749e-07
2	1	0	0	1	26.8961	0.246259	0.246058	0.000617631	2	6.9549e-06	1.51973e-07
2	1	0	0	1	26.9961	0.251259	0.251108	0.000616184	2	7.01689e-06	1.54729e-07
2	1	0	0	1	27.0961	0.256259	0.256154	0.000611369	2	7.07856e-06	1.56604e-07
2	1	0	0	1	27.1961	0.26126	0.261112	0.000608202	2	7.13993e-06	1.58809e-07
2	1	0	0	1	27.2961	0.26626	0.266067	0.0006076	2	7.20108e-06	1.61662e-07
2	1	0	0	1	27.3961	0.27126	0.271115	0.000605434	2	7.26207e-06	1.64142e-07
2	1	0	0	1	27.4961	0.27626	0.276112	0.000604685	2	7.32296e-06	1.66961e-07
2	1	0	0	1	27.5961	0.28126	0.281096	0.000605287	2	7.38381e-06	1.70144e-07
2	1	0	0	1	27.6961	0.28626	0.286103	0.000605452	2	7.44468e-06	1.73222e-07
2	1	0	0	1	27.7961	0.29126	0.291151	0.000605485	2	7.50561e-06	1.76288e-07
2	1	0	0	1	27.8961	0.29626	0.296138	0.000607158	2	7.56668e-06	1.79803e-07
2	0	0	1	1	27.9867	0.29921	0.299028	0.000511686	2	7.62062e-06	1.53009e-07
2	0	0	1	1	28.0867	0.29421	0.294017	0.000468371	2	7.66906e-06	1.37709e-07
2	0	0	1	1	28.1867	0.28921	0.289027	0.000443452	2	7.7143e-06	1.2817e-07
2	0	0	1	1	28.2867	0.28421	0.283999	0.000424235	2	7.75738e-06	1.20482e-07
2	0	0	1	1	28.3867	0.27921	0.279026	0.000407591	2	7.79872e-06	1.13728e-07
2	0	0	1	1	28.4867	0.27421	0.274078	0.00039465	2	7.83862e-06	1.08165e-07
2	0	0	1	1	28.5867	0.26921	0.269033	0.000384848	2	7.8773e-06	1.03537e-07
2	0	0	1	1	28.6867	0.26421	0.264047	0.00037487	2	7.9149e-06	9.89834e-08
2	0	0	1	1	28.7867	0.259209	0.259056	0.000362122	2	7.95152e-06	9.38099e-08
2	0	0	1	1	28.8867	0.254209	0.254001	0.000356178	2	7.98725e-06	9.04697e-08
2	0	0	1	1	28.9867	0.249209	0.248978	0.0003473	2	8.0222e-06	8.64699e-08
2	0	0	1	1	29.0867	0.244209	0.243984	0.000341787	2	8.05643e-06	8.33907e-08
2	0	0	1	1	29.1867	0.239209	0.238954	0.00033378	2	8.08995e-06	7.97581e-08
2	0	0	1	1	29.2867	0.234209	0.233997	0.000327195	2	8.12284e-06	7.65626e-08
2	0	0	1	1	29.3867	0.229209	0.22899	0.000322563	2	8.15513e-06	7.38638e-08
2	0	0	1	1	29.4867	0.224209	0.224072	0.000316847	2	8.18683e-06	7.09966e-08
2	0	0	1	1	29.5867	0.219209	0.21907	0.000311002	2	8.21797e-06	6.81314e-08
2	0	0	1	1	29.6867	0.214209	0.214045	0.000305634	2	8.24856e-06	6.54196e-08
2	0	0	1	1	29.7867	0.209208	0.209061	0.000301029	2	8.27865e-06	6.29334e-08
2	0	0	1	1	29.8867	0.204208	0.204046	0.000295863	2	8.30822e-06	6.03697e-08
2	0	0	1	1	29.9867	0.199208	0.198963	0.000289179	2	8.33726e-06	5.75358e-08
2	0	0	1	1	30.0867	0.194208	0.193982	0.000285545	2	8.36583e-06	5.53905e-08
2	0	0	1	1	30.1867	0.189208	0.188969	0.000280574	2	8.39389e-06	5.30199e-08
2	0	0	1	1	30.2867	0.184208	0.183989	0.000276927	2	8.42147e-06	5.09514e-08
2	0	0	1	1	30.3867	0.179208	0.178998	0.000270845	2	8.44854e-06	4.84806e-08
2	0	0	1	1	30.4867	0.174208	0.174031	0.000264226	2	8.4751e-06	4.59836e-08
2	0	0	1	1	30.5867	0.169208	0.169062	0.000261593	2	8.50115e-06	4.42254e-08
2	0	0	1	1	30.6867	0.164207	0.164021	0.000256299	2	8.52667e-06	4.20385e-08
2	0	0	1	1	30.7867	0.159207	0.159042	0.000248348	2	8.55164e-06	3.94978e-08
2	0	0	1	1	30.8867	0.154207	0.154012	0.000242129	2	8.57603e-06	3.72906e-08
2	0	0	1	1	30.9867	0.149207	0.148999	0.000237464	2	8.59978e-06	3.53819e-08
2	0	0	1	1	31.0867	0.144207	0.143979	0.000229934	2	8.6229e-06	3.31055e-08
2	0	0	1	1	31.1867	0.139207	0.13895	0.000221874	2	8.64531e-06	3.08294e-08
2	0	0	1	1	31.2867	0.134207	0.13404	0.000214059	2	8.66693e-06	2.86925e-08
2	0	0	1	1	31.3867	0.129207	0.129017	0.000204035	2	8.68768e-06	2.6324e-08
2	0	0	1	1	31.4867	0.124207	0.124	0.00019412	2	8.70742e-06	2.40708e-08
2	0	0	1	1	31.5867	0.119207	0.118972	0.000182161	2	8.72599e-06	2.16722e-08
2	0	0	1	1	31.6867	0.114206	0.114011	0.000167198	2	8.74321e-06	1.90624e-08
2	0	0	1	1	31.7867	0.109206	0.109067	0.000149707	2	8.75883e-06	1.63281e-08
2	0	0	1	1	31.8867	0.104206	0.104031	0.000130153	2	8.77253e-06	1.354e-08
2	0	0	1	1	31.9867	0.0992061	0.0989912	0.000101706	2	8.7839e-06	1.0068e-08
2	0	0	1	1	32.0867	0.094206	0.093946	7.09527e-05	2	8.79245e-06	6.66572e-09
2	0	0	1	1	32.1867	0.0892059	0.0889878	3.45225e-05	2	8.79752e-06	3.07208e-09
2	0	0	1	1	32.2867	0.0842057	0.0840095	-1.29529e-05	2	8.79835e-06	-1.08817e-09
2	0	0	1	1	32.3867	0.0792056	0.0790078	-7.02725e-05	2	8.79404e-06	-5.55207e-09
2	0	0	1	1	32.4867	0.0742055	0.0740083	-0.000137952	2	8.78351e-06	-1.02096e-08
2	0	0	1	1	32.5867	0.0692054	0.0690034	-0.000216576	2	8.76567e-06	-1.49445e-08
2	0	0	1	1	32.6867	0.0642053	0.0640187	-0.000306743	2	8.73934e-06	-1.96373e-08
2	0	0	1	1	32.7867	0.0592052	0.0590139	-0.000408016	2	8.70342e-06	-2.40786e-08
2	0	0	1	1	32.8867	0.0542051	0.0540345	-0.000514297	2	8.65711e-06	-2.77898e-08
2	0	0	1	1	32.9867	0.049205	0.0490105	-0.000624147	2	8.59992e-06	-3.05898e-08
2	0	0	1	1	33.0867	0.0442049	0.0440481	-0.000727253	2	8.532e-06	-3.20341e-08
2	0	0	1	1	33.1867	0.0392048	0.038951	-0.000820584	2	8.45423e-06	-3.19626e-08
2	0	0	1	1	33.2867	0.0342047	0.0339663	-0.000895571	2	8.36803e-06	-3.04193e-08
2	0	0	1	1	33.3867	0.0292045	0.0289986	-0.00094721	2	8.27547e-06	-2.74678e-08
2	0	0	1	1	33.4867	0.0242044	0.0240361	-0.000976314	2	8.17882e-06	-2.34668e-08
2	0	0	1	1	33.5867	0.0192043	0.0189984	-0.000983045	2	8.08044e-06	-1.86763e-08
2	0	0	1	1	33.6867	0.0142042	0.0140116	-0.000971149	2	7.98242e-06	-1.36073e-08
2	0	0	1	1	33.7867	0.00920411	0.00897707	-0.000943126	2	7.88643e-06	-8.46651e-09
2	0	0	1	1	33.8867	0.00420401	0.00399873	-0.000905442	2	7.79369e-06	-3.62062e-09
2	0	0	1	1	33.9867	-0.000796103	-0.00103898	-0.00086765	2	7.70488e-06	9.01475e-10
2	0	0	1	1	34.0867	-0.00579621	-0.00600885	-0.000821259	2	7.62026e-06	4.93482e-09
2	0	0	1	1	34.1867	-0.0107963	-0.010984	-0.000778567	2	7.54003e-06	8.55179e-09
2	0	0	1	1	34.2867	-0.0157964	-0.0160747	-0.000737808	2	7.46395e-06	1.18601e-08
2	0	0	1	1	34.3867	-0.0207965	-0.0210181	-0.00070154	2	7.39181e-06	1.4745e-08
2	0	0	1	1	34.4867	-0.0257967	-0.0259657	-0.000667007	2	7.32326e-06	1.73193e-08
2	0	0	1	1	34.5867	-0.0307968	-0.0310331	-0.00063545	2	7.258e-06	1.972e-08
2	0	0	1	1	34.6867	-0.0357969	-0.0359871	-0.000605773	2	7.19569e-06	2.18e-08
2	0	0	1	1	34.7867	-0.040797	-0.0410237	-0.000581921	2	7.13605e-06	2.38726e-08
2	0	0	1	1	34.8867	-0.0457971	-0.0460201	-0.000558999	2	7.07883e-06	2.57252e-08
2	0	0	1	1	34.9867	-0.0507972	-0.0510355	-0.000537362	2	7.0238e-06	2.74246e-08
2	0	0	1	1	35.0867	-0.0557973	-0.0560012	-0.000519036	2	6.97069e-06	2.90666e-08
2	0	0	1	1	35.1867	-0.0607974	-0.0610548	-0.000503181	2	6.9194e-06	3.07216e-08
2	0	0	1	1	35.2867	-0.0657975	-0.066066	-0.000485423	2	6.86973e-06	3.207e-08
2	0	0	1	1	35.3867	-0.0707977	-0.0710125	-0.000474007	2	6.82156e-06	3.36604e-08
2	0	0	1	1	35.4867	-0.0757978	-0.0760651	-0.000460392	2	6.77475e-06	3.50197e-08
2	0	0	1	1	35.5867	-0.0807979	-0.0810752	-0.000447147	2	6.72918e-06	3.62526e-08
2	0	0	1	1	35.6867	-0.085798	-0.0860483	-0.000436416	2	6.68479e-06	3.75529e-08
2	0	0	1	1	35.7867	-0.0907981	-0.0910531	-0.000425874	2	6.64148e-06	3.87772e-08
2	0	0	1	1	35.8867	-0.0957982	-0.0960506	-0.000416587	2	6.59917e-06	4.00134e-08
2	0	0	0	1	35.9869	-0.100798	-0.10099	-0.000407555	2	6.55772e-06	4.11589e-08
2	0	0	0	1	36.0869	-0.105798	-0.105943	-0.000398753	2	6.51719e-06	4.22449e-08
2	0	0	0	1	36.1869	-0.110799	-0.111034	-0.000390933	2	6.47749e-06	4.3407e-08
2	0	0	0	1	36.2869	-0.115799	-0.116025	-0.000383741	2	6.43854e-06	4.45237e-08
2	0	0	0	1	36.3869	-0.120799	-0.121053	-0.000377549	2	6.4003e-06	4.57033e-08
2	0	0	0	1	36.4869	-0.125799	-0.126035	-0.000370069	2	6.36273e-06	4.66417e-08
2	0	0	0	1	36.5869	-0.130799	-0.131004	-0.000363694	2	6.32577e-06	4.76453e-08
2	0	0	0	1	36.6869	-0.135799	-0.136073	-0.000359536	2	6.28942e-06	4.89233e-08
2	0	0	0	1	36.7869	-0.140799	-0.140992	-0.000353768	2	6.25363e-06	4.98787e-08
2	0	0	0	1	36.8869	-0.145799	-0.145993	-0.000348524	2	6.21835e-06	5.08821e-08
2	0	0	0	1	36.9869	-0.150799	-0.150985	-0.000342425	2	6.18356e-06	5.1701e-08
2	0	0	0	1	37.0869	-0.1558	-0.156005	-0.000338456	2	6.1492e-06	5.28007e-08
2	0	0	0	1	37.1869	-0.1608	-0.161012	-0.000334811	2	6.11529e-06	5.39086e-08
2	0	0	0	1	37.2869	-0.1658	-0.165972	-0.000332098	2	6.08176e-06	5.51191e-08
2	0	0	0	1	37.3869	-0.1708	-0.171043	-0.000328126	2	6.04859e-06	5.61235e-08
2	0	0	0	1	37.4869	-0.1758	-0.17602	-0.000325397	2	6.01574e-06	5.72763e-08
2	0	0	0	1	37.5869	-0.1808	-0.181014	-0.000321995	2	5.98319e-06	5.82856e-08
2	0	0	0	1	37.6869	-0.1858	-0.186054	-0.000319333	2	5.9509e-06	5.94131e-08
2	0	0	0	1	37.7869	-0.1908	-0.191052	-0.000316875	2	5.91885e-06	6.05395e-08
2	0	0	0	1	37.8869	-0.1958	-0.196014	-0.000315199	2	5.88698e-06	6.17834e-08
2	1	0	1	0	37.971	-0.200025	-0.200334	-0.000330853	2	5.86032e-06	6.62811e-08
2	1	0	1	0	38.0663	-0.19525	-0.195465	-0.000183898	2	5.84158e-06	3.59455e-08
2	1	0	1	0	38.1663	-0.19025	-0.190433	-0.000167737	2	5.82437e-06	3.19427e-08
2	1	0	1	0	38.2663	-0.18525	-0.185418	-0.000155309	2	5.80862e-06	2.8797e-08
2	1	0	1	0	38.3663	-0.18025	-0.180424	-0.000143557	2	5.79402e-06	2.5901e-08
2	1	0	1	0	38.4663	-0.17525	-0.175451	-0.000135703	2	5.78036e-06	2.38092e-08
2	1	0	1	0	38.5663	-0.17025	-0.170425	-0.000129261	2	5.76751e-06	2.20293e-08
2	1	0	1	0	38.6663	-0.16525	-0.165437	-0.000121148	2	5.75542e-06	2.00424e-08
2	1	0	1	0	38.7663	-0.16025	-0.160426	-0.000115384	2	5.74396e-06	1.85106e-08
2	1	0	1	0	38.8663	-0.15525	-0.155395	-0.000108517	2	5.73311e-06	1.6863e-08
2	1	0	1	0	38.9663	-0.150249	-0.15037	-0.000103166	2	5.72284e-06	1.55131e-08
2	1	0	1	0	39.0663	-0.145249	-0.145435	-9.94939e-05	2	5.71308e-06	1.44699e-08
2	1	0	1	0	39.1663	-0.140249	-0.14044	-9.36507e-05	2	5.70379e-06	1.31523e-08
2	1	0	1	0	39.2663	-0.135249	-0.135431	-8.98229e-05	2	5.69496e-06	1.21648e-08
2	1	0	1	0	39.3663	-0.130249	-0.130449	-8.6654e-05	2	5.68658e-06	1.1304e-08
2	1	0	1	0	39.4663	-0.125249	-0.125431	-8.07772e-05	2	5.67862e-06	1.0132e-08
2	1	0	1	0	39.5663	-0.120249	-0.120495	-7.5826e-05	2	5.67104e-06	9.13665e-09
2	1	0	1	0	39.6663	-0.115249	-0.115511	-7.39077e-05	2	5.66385e-06	8.53717e-09
2	1	0	1	0	39.7663	-0.110249	-0.110437	-7.03608e-05	2	5.65702e-06	7.77047e-09
2	1	0	1	0	39.8663	-0.105248	-0.105457	-6.69693e-05	2	5.65053e-06	7.06238e-09
2	1	0	1	0	39.9663	-0.100248	-0.100448	-6.36343e-05	2	5.64437e-06	6.39194e-09
2	1	0	0	0	40.0665	-0.0952482	-0.0954802	-5.98242e-05	3	5.6385e-06	5.71203e-09
2	1	0	0	0	40.1665	-0.0902481	-0.0904796	-5.70404e-05	3	5.63296e-06	5.16099e-09
2	1	0	0	0	40.2665	-0.085248	-0.0854196	-5.45586e-05	3	5.62772e-06	4.66037e-09
2	1	0	0	0	40.3665	-0.0802479	-0.0804773	-5.09605e-05	3	5.62275e-06	4.10116e-09
2	1	0	0	0	40.4665	-0.0752478	-0.0754004	-4.85599e-05	3	5.61809e-06	3.66144e-09
2	1	0	0	0	40.5665	-0.0702476	-0.0704708	-4.70602e-05	3	5.61368e-06	3.31637e-09
2	1	0	0	0	40.6665	-0.0652475	-0.065466	-4.42393e-05	3	5.60954e-06	2.89617e-09
2	1	0	0	0	40.7665	-0.0602474	-0.0603837	-3.95389e-05	3	5.6057e-06	2.38751e-09
2	1	0	0	0	40.8665	-0.0552473	-0.0554817	-3.69141e-05	3	5.60212e-06	2.04806e-09
2	1	0	0	0	40.9665	-0.0502472	-0.0504175	-3.44694e-05	3	5.59886e-06	1.73786e-09
2	1	0	0	0	41.0665	-0.0452471	-0.0454561	-3.15619e-05	3	5.59588e-06	1.43468e-09
2	1	0	0	0	41.1665	-0.040247	-0.0404258	-2.73155e-05	3	5.59321e-06	1.10425e-09
2	1	0	0	0	41.2665	-0.0352469	-0.0354241	-2.4136e-05	3	5.5909e-06	8.54996e-10
2	1	0	0	0	41.3665	-0.0302468	-0.0305147	-1.98065e-05	3	5.58899e-06	6.0439e-10
2	1	0	0	0	41.4665	-0.0252466	-0.0254452	-1.50019e-05	3	5.58753e-06	3.81727e-10
2	1	0	0	0	41.5665	-0.0202465	-0.0203916	-9.66034e-06	3	5.58659e-06	1.96989e-10
2	1	0	0	0	41.6665	-0.0152464	-0.0154217	-2.75197e-06	3	5.5863e-06	4.244e-11
2	1	0	0	0	41.7665	-0.0102463	-0.0103925	5.79209e-06	3	5.5868e-06	-6.01941e-11
2	1	0	0	0	41.8665	-0.0052462	-0.00534839	1.67314e-05	3	5.58829e-06	-8.94859e-11
2	1	0	0	0	41.9665	-0.000243748	-0.000367925	3.13324e-05	3	5.59105e-06	-1.1528e-11
2	1	0	0	0	42.0665	0.00475402	0.00459134	4.98707e-05	3	5.59539e-06	2.28973e-10
2	1	0	0	0	42.1665	0.00975413	0.00962375	7.16168e-05	3	5.60174e-06	6.89222e-10
2	1	0	0	0	42.2665	0.0147542	0.0145671	0.000101121	3	5.61069e-06	1.47304e-09
2	1	0	0	0	42.3665	0.0197543	0.019643	0.000139466	3	5.6229e-06	2.73953e-09
2	1	0	0	0	42.4665	0.0247545	0.0245535	0.000184376	3	5.63922e-06	4.52708e-09
2	1	0	0	0	42.5665	0.0297546	0.0295965	0.000239725	3	5.66062e-06	7.09501e-09
2	1	0	0	0	42.6665	0.0347547	0.0345568	0.00030736	3	5.6882e-06	1.06214e-08
2	1	0	0	0	42.7665	0.0397548	0.0395574	0.000386537	3	5.72313e-06	1.52904e-08
2	1	0	0	0	42.8665	0.0447549	0.0445729	0.000475743	3	5.76646e-06	2.12053e-08
2	1	0	0	0	42.9665	0.049755	0.0495629	0.000573266	3	5.81921e-06	2.84127e-08
2	1	0	0	0	43.0665	0.0547551	0.0546705	0.000676819	3	5.8822e-06	3.70021e-08
2	1	0	0	0	43.1665	0.0597552	0.0595969	0.000781826	3	5.95554e-06	4.65945e-08
2	1	0	0	0	43.2665	0.0647553	0.0646484	0.000880287	3	6.03903e-06	5.69092e-08
2	1	0	0	0	43.3665	0.0697554	0.069543	0.000967685	3	6.1319e-06	6.72957e-08
2	1	0	0	0	43.4665	0.0747555	0.0745807	0.00104019	3	6.23283e-06	7.75781e-08
2	1	0	0	0	43.5665	0.0797556	0.0795856	0.00109543	3	6.34016e-06	8.71801e-08
2	1	0	0	0	43.6665	0.0847557	0.0846318	0.00113086	3	6.45195e-06	9.57066e-08
2	1	0	0	0	43.7665	0.0897559	0.0896176	0.00114655	3	6.56627e-06	1.02751e-07
2	1	0	0	0	43.8665	0.094756	0.0945598	0.00114692	3	6.68136e-06	1.08452e-07
2	1	0	0	0	43.9665	0.0997561	0.099658	0.00113325	3	6.79572e-06	1.12937e-07
2	1	0	0	0	44.0665	0.104756	0.104617	0.00110943	3	6.90823e-06	1.16065e-07
2	1	0	0	0	44.1665	0.109756	0.109591	0.00107948	3	7.01806e-06	1.18302e-07
2	1	0	0	0	44.2665	0.114756	0.114587	0.00104625	3	7.12472e-06	1.19887e-07
2	1	0	0	0	44.3665	0.119757	0.119569	0.00101179	3	7.22799e-06	1.20979e-07
2	1	0	0	0	44.4665	0.124757	0.124506	0.000979103	3	7.32778e-06	1.21904e-07
2	1	0	0	0	44.5665	0.129757	0.129534	0.00094466	3	7.42417e-06	1.22366e-07
2	1	0	0	0	44.6665	0.134757	0.134609	0.00091137	3	7.51729e-06	1.22679e-07
2	1	0	0	0	44.7665	0.139757	0.139538	0.000885058	3	7.60732e-06	1.23499e-07
2	1	0	0	0	44.8665	0.144757	0.14459	0.00085598	3	7.69449e-06	1.23766e-07
2	1	0	0	0	44.9665	0.149757	0.149579	0.000829828	3	7.779e-06	1.24125e-07
2	1	0	0	0	45.0665	0.154757	0.154622	0.000805878	3	7.86111e-06	1.24607e-07
2	1	0	0	0	45.1665	0.159757	0.159592	0.000785235	3	7.94094e-06	1.25317e-07
2	1	0	0	0	45.2665	0.164757	0.164622	0.000765183	3	8.01871e-06	1.25966e-07
2	1	0	0	0	45.3665	0.169758	0.169627	0.00074588	3	8.09459e-06	1.26522e-07
2	1	0	0	0	45.4665	0.174758	0.174575	0.000730122	3	8.16872e-06	1.27461e-07
2	1	0	0	0	45.5665	0.179758	0.179607	0.000715009	3	8.24122e-06	1.28421e-07
2	1	0	0	0	45.6665	0.184758	0.184651	0.000700849	3	8.31225e-06	1.29413e-07
2	1	0	0	0	45.7665	0.189758	0.1896	0.000687284	3	8.38191e-06	1.30309e-07
2	1	0	0	0	45.8665	0.194758	0.194551	0.000674189	3	8.45032e-06	1.31164e-07
2	1	0	0	0	45.9665	0.199758	0.199651	0.000664287	3	8.51757e-06	1.32626e-07
2	1	0	0	0	46.0665	0.204758	0.204605	0.00065424	3	8.58377e-06	1.33861e-07
2	1	0	0	0	46.1665	0.209758	0.20962	0.000644238	3	8.64897e-06	1.35046e-07
2	1	0	0	0	46.2665	0.214759	0.214606	0.000636936	3	8.71327e-06	1.3669e-07
2	1	0	0	0	46.3665	0.219759	0.219577	0.000627567	3	8.77675e-06	1.37799e-07
2	1	0	0	0	46.4665	0.224759	0.224612	0.000622268	3	8.83944e-06	1.39769e-07
2	1	0	0	0	46.5665	0.229759	0.229658	0.000613402	3	8.90142e-06	1.40873e-07
2	1	0	0	0	46.6665	0.234759	0.234587	0.000605542	3	8.96273e-06	1.42052e-07
2	1	0	0	0	46.7665	0.239759	0.239604	0.000601159	3	9.02343e-06	1.4404e-07
2	1	0	0	0	46.8665	0.244759	0.244662	0.000596215	3	9.08359e-06	1.45871e-07
2	1	0	0	0	46.9665	0.249759	0.24961	0.000590573	3	9.14324e-06	1.47413e-07
2	1	0	0	0	47.0665	0.254759	0.254645	0.000587231	3	9.20245e-06	1.49536e-07
2	1	0	0	0	47.1665	0.259759	0.259714	0.000583942	3	9.2613e-06	1.51658e-07
2	1	0	0	0	47.2665	0.26476	0.264598	0.00057988	3	9.3198e-06	1.53435e-07
2	1	0	0	0	47.3665	0.26976	0.269609	0.000577638	3	9.37803e-06	1.55736e-07
2	1	0	0	0	47.4665	0.27476	0.274622	0.000574383	3	9.43604e-06	1.57738e-07
2	1	0	0	0	47.5665	0.27976	0.279638	0.000576091	3	9.4939e-06	1.61097e-07
2	1	0	0	0	47.6665	0.28476	0.284546	0.000574322	3	9.55168e-06	1.63421e-07
2	1	0	0	0	47.7665	0.28976	0.289583	0.000574895	3	9.60942e-06	1.6648e-07
2	1	0	0	0	47.8665	0.29476	0.294633	0.000574001	3	9.66719e-06	1.6912e-07
2	1	0	0	0	47.966	0.299735	0.299602	0.00057625	3	9.72475e-06	1.72646e-07
2	0	0	1	0	48.0571	0.29571	0.295528	0.000448977	3	9.76767e-06	1.32685e-07
2	0	0	1	0	48.1571	0.29071	0.290568	0.000422743	3	9.81097e-06	1.22836e-07
2	0	0	1	0	48.2571	0.28571	0.28554	0.000404597	3	9.8522e-06	1.15529e-07
2	0	0	1	0	48.3571	0.28071	0.280532	0.000391762	3	9.8918e-06	1.09902e-07
2	0	0	1	0	48.4571	0.27571	0.275547	0.000377539	3	9.93005e-06	1.0403e-07
2	0	0	1	0	48.5571	0.27071	0.270553	0.000369138	3	9.96715e-06	9.98714e-08
2	0	0	1	0	48.6571	0.26571	0.265532	0.000358755	3	1.00032e-05	9.52611e-08
2	0	0	1	0	48.7571	0.26071	0.260495	0.000349872	3	1.00384e-05	9.11398e-08
2	0	0	1	0	48.8571	0.255709	0.255587	0.00034237	3	1.00728e-05	8.75055e-08
2	0	0	1	0	48.9571	0.250709	0.250501	0.000333971	3	1.01064e-05	8.366e-08
2	0	0	1	0	49.0571	0.245709	0.245481	0.000329767	3	1.01393e-05	8.09516e-08
2	0	0	1	0	49.1571	0.240709	0.240445	0.000321014	3	1.01716e-05	7.71862e-08
2	0	0	1	0	49.2571	0.235709	0.235498	0.000316574	3	1.02033e-05	7.45525e-08
2	0	0	1	0	49.3571	0.230709	0.230554	0.000311258	3	1.02344e-05	7.17618e-08
2	0	0	1	0	49.4571	0.225709	0.225544	0.000304359	3	1.0265e-05	6.86462e-08
2	0	0	1	0	49.5571	0.220709	0.220561	0.000299938	3	1.0295e-05	6.61545e-08
2	0	0	1	0	49.6571	0.215709	0.215518	0.000295776	3	1.03245e-05	6.3745e-08
2	0	0	1	0	49.7571	0.210708	0.210549	0.000289851	3	1.03535e-05	6.1028e-08
2	0	0	1	0	49.8571	0.205708	0.205542	0.000285126	3	1.0382e-05	5.86055e-08
2	0	0	1	0	49.9571	0.200708	0.200479	0.000280732	3	1.041e-05	5.62808e-08
2	0	0	1	0	50.0571	0.195708	0.19551	0.000275703	3	1.04375e-05	5.39027e-08
2	0	0	1	0	50.1571	0.190708	0.19055	0.00027064	3	1.04645e-05	5.15704e-08
2	0	0	1	0	50.2571	0.185708	0.185516	0.000265272	3	1.04911e-05	4.92123e-08
2	0	0	1	0	50.3571	0.180708	0.18053	0.000260317	3	1.05172e-05	4.6995e-08
2	0	0	1	0	50.4571	0.175708	0.175561	0.000255064	3	1.05428e-05	4.47793e-08
2	0	0	1	0	50.5571	0.170708	0.170555	0.000251182	3	1.05678e-05	4.28402e-08
2	0	0	1	0	50.6571	0.165707	0.165507	0.000245826	3	1.05924e-05	4.06858e-08
2	0	0	1	0	50.7571	0.160707	0.16057	0.000239848	3	1.06165e-05	3.85123e-08
2	0	0	1	0	50.8571	0.155707	0.155564	0.000234706	3	1.064e-05	3.65118e-08
2	0	0	1	0	50.9571	0.150707	0.150467	0.000228653	3	1.06628e-05	3.44046e-08
2	0	0	1	0	51.0571	0.145707	0.145491	0.000221882	3	1.06851e-05	3.2282e-08
2	0	0	1	0	51.1571	0.140707	0.140479	0.000214815	3	1.07067e-05	3.0177e-08
2	0	0	1	0	51.2571	0.135707	0.135463	0.000206379	3	1.07275e-05	2.79566e-08
2	0	0	1	0	51.3571	0.130707	0.130475	0.000198569	3	1.07475e-05	2.59083e-08
2	0	0	1	0	51.4571	0.125707	0.125528	0.000186948	3	1.07665e-05	2.34673e-08
2	0	0	1	0	51.5571	0.120707	0.120534	0.000175336	3	1.07845e-05	2.11339e-08
2	0	0	1	0	51.6571	0.115706	0.115473	0.000162014	3	1.08012e-05	1.87082e-08
2	0	0	1	0	51.7571	0.110706	0.110516	0.00014591	3	1.08164e-05	1.61253e-08
2	0	0	1	0	51.8571	0.105706	0.105528	0.000126682	3	1.08298e-05	1.33685e-08
2	0	0	1	0	51.9571	0.100706	0.100551	0.000101727	3	1.0841e-05	1.02287e-08
2	0	0	1	0	52.0571	0.095706	0.0954451	7.36499e-05	3	1.08496e-05	7.02952e-09
2	0	0	1	0	52.1571	0.0907059	0.0905473	3.96415e-05	3	1.0855e-05	3.58943e-09
2	0	0	1	0	52.2571	0.0857058	0.0855127	-4.85575e-06	3	1.08565e-05	-4.15228e-10
2	0	0	1	0	52.3571	0.0807056	0.0804846	-5.72488e-05	3	1.08532e-05	-4.60765e-09
2	0	0	1	0	52.4571	0.0757056	0.0754575	-0.000122139	3	1.08441e-05	-9.21631e-09
2	0	0	1	0	52.5571	0.0707054	0.0705268	-0.000194072	3	1.08282e-05	-1.36873e-08
2	0	0	1	0	52.6571	0.0657053	0.0655273	-0.00028006	3	1.08043e-05	-1.83516e-08
2	0	0	1	0	52.7571	0.0607052	0.0604991	-0.000377306	3	1.07712e-05	-2.28267e-08
2	0	0	1	0	52.8571	0.0557051	0.0555027	-0.000481175	3	1.07281e-05	-2.67065e-08
2	0	0	1	0	52.9571	0.050705	0.0505869	-0.000587586	3	1.06743e-05	-2.97242e-08
2	0	0	1	0	53.0571	0.0457049	0.0454846	-0.000696276	3	1.06096e-05	-3.16698e-08
2	0	0	1	0	53.1571	0.0407048	0.040538	-0.000793656	3	1.05347e-05	-3.21732e-08
2	0	0	1	0	53.2571	0.0357047	0.0354876	-0.000876526	3	1.04508e-05	-3.11058e-08
2	0	0	1	0	53.3571	0.0307046	0.0304859	-0.000938163	3	1.03596e-05	-2.86008e-08
2	0	0	1	0	53.4571	0.0257045	0.0255585	-0.000976564	3	1.02634e-05	-2.49595e-08
2	0	0	1	0	53.5571	0.0207044	0.0205229	-0.000992086	3	1.01644e-05	-2.03605e-08
2	0	0	1	0	53.6571	0.0157043	0.0155	-0.000988263	3	1.00649e-05	-1.53181e-08
2	0	0	1	0	53.7571	0.0107041	0.0104591	-0.000966143	3	9.9668e-06	-1.0105e-08
2	0	0	1	0	53.8571	0.00570404	0.00548502	-0.00093409	3	9.87143e-06	-5.1235e-09
2	0	0	1	0	53.9571	0.00070393	0.000510918	-0.000895063	3	9.77975e-06	-4.57304e-10
2	0	0	1	0	54.0571	-0.00429618	-0.00449605	-0.000850384	3	9.69212e-06	3.82337e-09
2	0	0	1	0	54.1571	-0.00929629	-0.00948288	-0.000808393	3	9.60886e-06	7.66589e-09
2	0	0	1	0	54.2571	-0.0142964	-0.0145301	-0.000766789	3	9.52985e-06	1.11415e-08
2	0	0	1	0	54.3571	-0.0192965	-0.0195	-0.000729135	3	9.45485e-06	1.42181e-08
2	0	0	1	0	54.4571	-0.0242966	-0.0244741	-0.00069292	3	9.38359e-06	1.69586e-08
2	0	0	1	0	54.5571	-0.0292967	-0.0295267	-0.000660417	3	9.31571e-06	1.94999e-08
2	0	0	1	0	54.6571	-0.0342968	-0.034505	-0.00063057	3	9.25094e-06	2.17578e-08
2	0	0	1	0	54.7571	-0.039297	-0.0395236	-0.000605558	3	9.18895e-06	2.39338e-08
2	0	0	1	0	54.8571	-0.0442971	-0.0445507	-0.000580945	3	9.12948e-06	2.58815e-08
2	0	0	1	0	54.9571	-0.0492972	-0.0494952	-0.000558541	3	9.07229e-06	2.76451e-08
2	0	0	1	0	55.0571	-0.0542973	-0.0545371	-0.000538984	3	9.01711e-06	2.93946e-08
2	0	0	1	0	55.1571	-0.0592974	-0.0595133	-0.000521989	3	8.96382e-06	3.10653e-08
2	0	0	1	0	55.2571	-0.0642975	-0.0645818	-0.00050524	3	8.91221e-06	3.26293e-08
2	0	0	1	0	55.3571	-0.0692976	-0.0695443	-0.000491295	3	8.86215e-06	3.41667e-08
2	0	0	1	0	55.4571	-0.0742977	-0.0745258	-0.000477134	3	8.81351e-06	3.55587e-08
2	0	0	1	0	55.5571	-0.0792978	-0.0795529	-0.000464401	3	8.76617e-06	3.69445e-08
2	0	0	1	0	55.6571	-0.0842979	-0.0845174	-0.00045331	3	8.72005e-06	3.83126e-08
2	0	0	1	0	55.7571	-0.0892981	-0.0895626	-0.000442184	3	8.67505e-06	3.96031e-08
2	0	0	1	0	55.8571	-0.0942982	-0.0944699	-0.000431931	3	8.63108e-06	4.08045e-08
2	0	0	0	0	55.9573	-0.0992983	-0.0995988	-0.000423488	3	8.588e-06	4.21789e-08
2	0	0	0	0	56.0573	-0.104298	-0.104516	-0.000414919	3	8.54591e-06	4.33656e-08
2	0	0	0	0	56.1573	-0.109299	-0.109558	-0.000405171	3	8.50466e-06	4.43895e-08
2	0	0	0	0	56.2573	-0.114299	-0.114461	-0.000399119	3	8.46421e-06	4.56834e-08
2	0	0	0	0	56.3573	-0.119299	-0.119489	-0.00038957	3	8.42448e-06	4.65492e-08
2	0	0	0	0	56.4573	-0.124299	-0.124499	-0.00038455	3	8.38546e-06	4.78761e-08
2	0	0	0	0	56.5573	-0.129299	-0.129481	-0.000377549	3	8.3471e-06	4.88853e-08
2	0	0	0	0	56.6573	-0.134299	-0.134489	-0.000371591	3	8.30937e-06	4.99748e-08
2	0	0	0	0	56.7573	-0.139299	-0.139532	-0.00036598	3	8.27222e-06	5.10657e-08
2	0	0	0	0	56.8573	-0.144299	-0.144532	-0.00036156	3	8.23561e-06	5.22571e-08
2	0	0	0	0	56.9573	-0.149299	-0.149546	-0.000355902	3	8.19954e-06	5.32236e-08
2	0	0	0	0	57.0573	-0.1543	-0.154494	-0.000355341	3	8.16394e-06	5.4898e-08
2	0	0	0	0	57.1573	-0.1593	-0.159486	-0.000347641	3	8.12879e-06	5.54439e-08
2	0	0	0	0	57.2573	-0.1643	-0.1645	-0.000342287	3	8.09406e-06	5.63061e-08
2	0	0	0	0	57.3573	-0.1693	-0.169551	-0.000338994	3	8.05971e-06	5.74769e-08
2	0	0	0	0	57.4573	-0.1743	-0.174492	-0.000336417	3	8.02572e-06	5.87022e-08
2	0	0	0	0	57.5573	-0.1793	-0.179524	-0.000333377	3	7.99206e-06	5.98491e-08
2	0	0	0	0	57.6573	-0.1843	-0.184512	-0.000329072	3	7.95867e-06	6.07177e-08
2	0	0	0	0	57.7573	-0.1893	-0.189478	-0.000326714	3	7.92554e-06	6.19053e-08
2	0	0	0	0	57.8573	-0.1943	-0.194588	-0.000325914	3	7.89262e-06	6.3419e-08
2	0	0	0	0	57.9573	-0.1993	-0.199525	-0.0003241	3	7.85991e-06	6.46661e-08
2	1	0	1	1	58.0367	-0.19675	-0.196883	-0.000199184	3	7.84158e-06	3.9216e-08
2	1	0	1	1	58.1367	-0.19175	-0.191938	-0.000177865	3	7.82297e-06	3.41391e-08
2	1	0	1	1	58.2367	-0.18675	-0.186964	-0.000166447	3	7.80598e-06	3.11196e-08
2	1	0	1	1	58.3367	-0.18175	-0.181986	-0.000153973	3	7.79021e-06	2.8021e-08
2	1	0	1	1	58.4367	-0.17675	-0.176927	-0.000146583	3	7.77543e-06	2.59345e-08
2	1	0	1	1	58.5367	-0.17175	-0.171928	-0.00013766	3	7.7615e-06	2.36677e-08
2	1	0	1	1	58.6367	-0.16675	-0.166911	-0.000131687	3	7.74832e-06	2.198e-08
2	1	0	1	1	58.7367	-0.16175	-0.161908	-0.000123983	3	7.73581e-06	2.00738e-08
2	1	0	1	1	58.8367	-0.15675	-0.156932	-0.000118795	3	7.72392e-06	1.86428e-08
2	1	0	1	1	58.9367	-0.151749	-0.151945	-0.000112952	3	7.71264e-06	1.71625e-08
2	1	0	1	1	59.0367	-0.146749	-0.146935	-0.000107959	3	7.70186e-06	1.58629e-08
2	1	0	1	1	59.1367	-0.141749	-0.141948	-0.000103029	3	7.69159e-06	1.46246e-08
2	1	0	1	1	59.2367	-0.136749	-0.136955	-9.80367e-05	3	7.68178e-06	1.34267e-08
2	1	0	1	1	59.3367	-0.131749	-0.131861	-9.33663e-05	3	7.67243e-06	1.23113e-08
2	1	0	1	1	59.4367	-0.126749	-0.126921	-8.92824e-05	3	7.66351e-06	1.13318e-08
2	1	0	1	1	59.5367	-0.121749	-0.121936	-8.36865e-05	3	7.65499e-06	1.02044e-08
2	1	0	1	1	59.6367	-0.116749	-0.116981	-8.05158e-05	3	7.64688e-06	9.41878e-09
2	1	0	1	1	59.7367	-0.111749	-0.111997	-7.9251e-05	3	7.63912e-06	8.87588e-09
2	1	0	1	1	59.8367	-0.106748	-0.106963	-7.43263e-05	3	7.63174e-06	7.9502e-09
2	1	0	1	1	59.9367	-0.101748	-0.101954	-7.04668e-05	3	7.62469e-06	7.18439e-09
2	1	0	0	1	60.0369	-0.0967482	-0.0969029	-6.78896e-05	3	7.61793e-06	6.5787e-09
2	1	0	0	1	60.1369	-0.0917481	-0.0919638	-6.50086e-05	3	7.61153e-06	5.97844e-09
2	1	0	0	1	60.2369	-0.086748	-0.08696	-6.31309e-05	3	7.60542e-06	5.48986e-09
2	1	0	0	1	60.3369	-0.0817479	-0.0818958	-5.76834e-05	3	7.59963e-06	4.72402e-09
2	1	0	0	1	60.4369	-0.0767478	-0.0769248	-5.52422e-05	3	7.59411e-06	4.2495e-09
2	1	0	1	1	60.5146	-0.0728227	-0.0731317	-5.97041e-05	3	7.59001e-06	4.36626e-09