File: AutoAnalysis Examples/EC/C003C-0ppb-B_C01.mpt
EC-Lab ASCII FILE
Nb header lines : 59

Cyclic Voltammetry

Run on channel : 1 (SN 22398)
User :
CE vs. WE compliance from -10 V to 10 V
Electrode connection : standard
Ewe ctrl range : min = -1.00 V, max = 1.00 V
Safety Limits :
	Ewe min = -2.00 V
	Ewe max = 2.00 V
	|I| = 50.000 mA
	for t > 10 ms
Acquisition started on : 11/21/2018 11:22:19
Technique started on : 11/21/2018 11:22:19
Saved on :
	File : C003C-0ppb-B_C01.mpr
	Directory : \\ECCOMPUTER\Users\Lab User\Google Drive\Electrochemical Data\EC-Lab\Data\FREDsense\Tim\2018.11.21 - EC comparison to High Throughput\
	Host : 172.16.1.30
Device : SP-50 (SN 0301030103010301)
Address : USB
EC-Lab for windows v11.02 (software)
Internet server v11.02 (firmware)
Command interpretor v11.02 (firmware)
Electrode material : Au/Pd
Initial state :
Electrolyte : NaCl (0.2M)
Comments : Fe(CN)63-/Fe(CN)64- 5.10-3 M
Reference electrode : SCE Saturated Calomel Electrode (0.241 V)
Electrode surface area : 0.001 cm²
Characteristic mass : 0.001 g
Equivalent Weight : 0.000 g/eq.
Density : 0.000 g/cm3
Cycle Definition : Charge/Discharge alternance
Ei (V)              -0.100
vs.                 Ref
dE/dt               50.000
dE/dt unit          mV/s
E1 (V)              0.300
vs.                 Ref
Step percent        50
N                   10
E range min (V)     -1.000
E range max (V)     1.000
I Range             Auto
I Range min         Unset
I Range max         Unset
I Range init        Unset
Bandwidth           5
E2 (V)              -0.200
vs.                 Ref
nc cycles           2
Reverse Scan        1
Ef (V)              0.000
vs.                 Eoc

mode	ox/red	error	control changes	counter inc.	time/s	control/V	Ewe/V	<I>/mA	cycle number	(Q-Qo)/C	P/W
2	1	0	1	0	0.000000000000000E+000	-0.0984851	-0.0985642	-6.60595e-05	1	0.0000000E+000	6.5111e-09
2	1	0	0	0	0.111	-0.0929349	-0.0930411	-8.94701e-06	1	9.65623e-10	8.3244e-10
2	1	0	1	0	0.2265	-0.0871597	-0.0872824	3.11717e-05	1	5.36785e-09	-2.72074e-09
2	1	0	1	0	0.3265	-0.0821595	-0.0822882	3.78522e-05	1	9.09437e-09	-3.11479e-09
2	1	0	1	0	0.4265	-0.0771593	-0.0773162	4.17594e-05	1	1.32936e-08	-3.22868e-09
2	1	0	1	0	0.5265	-0.0721591	-0.072253	4.49407e-05	1	1.78363e-08	-3.2471e-09
2	1	0	1	0	0.6265	-0.0671589	-0.067281	4.67371e-05	1	2.26178e-08	-3.14452e-09
2	1	0	1	0	0.7265	-0.0621587	-0.0623048	4.97347e-05	1	2.76553e-08	-3.09871e-09
2	1	0	1	0	0.8265	-0.0571585	-0.0572745	4.96641e-05	1	3.29089e-08	-2.84449e-09
2	1	0	1	0	0.9265	-0.0521583	-0.0522665	5.6878e-05	1	3.84025e-08	-2.97281e-09
2	1	0	1	0	1.0265	-0.0471581	-0.0472394	5.64753e-05	1	4.41254e-08	-2.66786e-09
2	1	0	1	0	1.1265	-0.0421579	-0.0422907	5.81322e-05	1	5.00804e-08	-2.45845e-09
2	1	0	1	0	1.2265	-0.0371577	-0.0372657	6.12728e-05	1	5.63392e-08	-2.28338e-09
2	1	0	1	0	1.3265	-0.0321575	-0.0322853	6.62399e-05	1	6.29122e-08	-2.13857e-09
2	1	0	1	0	1.4265	-0.0271573	-0.0272433	7.08149e-05	1	6.98931e-08	-1.92923e-09
2	1	0	1	0	1.5265	-0.022157	-0.022266	7.54746e-05	1	7.73956e-08	-1.68052e-09
2	1	0	1	0	1.6265	-0.0171568	-0.0172707	8.34817e-05	1	8.55644e-08	-1.44179e-09
2	1	0	1	0	1.7265	-0.0121566	-0.0122913	9.42232e-05	1	9.45889e-08	-1.15813e-09
2	1	0	1	0	1.8265	-0.00715643	-0.00724299	0.000107286	1	1.04766e-07	-7.77069e-10
2	1	0	1	0	1.9265	-0.00215623	-0.00225935	0.000124323	1	1.16466e-07	-2.80888e-10
2	1	0	1	0	2.0265	0.00284397	0.00270204	0.000148792	1	1.30301e-07	4.02043e-10
2	1	0	1	0	2.1265	0.00784417	0.00777473	0.00017904	1	1.4685e-07	1.39199e-09
2	1	0	1	0	2.2265	0.0128444	0.0127552	0.000221653	1	1.6706e-07	2.82722e-09
2	1	0	1	0	2.3265	0.0178446	0.0177569	0.000276453	1	1.92077e-07	4.90894e-09
2	1	0	1	0	2.4265	0.0228448	0.0227214	0.000347408	1	2.23335e-07	7.8936e-09
2	1	0	1	0	2.5265	0.027845	0.0277401	0.000436466	1	2.62596e-07	1.21076e-08
2	1	0	1	0	2.6265	0.0328452	0.0326972	0.000546855	1	3.11784e-07	1.78806e-08
2	1	0	1	0	2.7265	0.0378454	0.0377402	0.000678445	1	3.7306e-07	2.56046e-08
2	1	0	1	0	2.8265	0.0428456	0.0427111	0.000831137	1	4.48621e-07	3.54988e-08
2	1	0	1	0	2.9265	0.0478458	0.0476937	0.00100244	1	5.40402e-07	4.78102e-08
2	1	0	1	0	3.0265	0.052846	0.0527484	0.00118538	1	6.50059e-07	6.25267e-08
2	1	0	1	0	3.1265	0.0578462	0.0577999	0.00137257	1	7.78235e-07	7.93345e-08
2	1	0	1	0	3.2265	0.0628464	0.0627623	0.00154956	1	9.24717e-07	9.7254e-08
2	1	0	1	0	3.3265	0.0678466	0.0676919	0.0017137	1	1.08838e-06	1.16004e-07
2	1	0	1	0	3.4265	0.0728468	0.0728155	0.00184907	1	1.267e-06	1.34641e-07
2	1	0	1	0	3.5265	0.077847	0.0777154	0.00195406	1	1.45769e-06	1.51861e-07
2	1	0	1	0	3.6265	0.0828472	0.082698	0.00202453	1	1.65719e-06	1.67424e-07
2	1	0	1	0	3.7265	0.0878474	0.0877219	0.00206402	1	1.86212e-06	1.81059e-07
2	1	0	1	0	3.8265	0.0928476	0.0927861	0.00207436	1	2.06951e-06	1.92472e-07
2	1	0	1	0	3.9265	0.0978478	0.0977433	0.00206041	1	2.27673e-06	2.01391e-07
2	1	0	1	0	4.0265	0.102848	0.102757	0.00203191	1	2.48177e-06	2.08792e-07
2	1	0	1	0	4.1265	0.107848	0.107762	0.00199168	1	2.68325e-06	2.14628e-07
2	1	0	1	0	4.2265	0.112848	0.112739	0.00194405	1	2.88017e-06	2.19169e-07
2	1	0	1	0	4.3265	0.117849	0.117703	0.00189004	1	3.07205e-06	2.22464e-07
2	1	0	1	0	4.4265	0.122849	0.122674	0.00183577	1	3.25855e-06	2.25202e-07
2	1	0	1	0	4.5265	0.127849	0.127771	0.00178333	1	3.43968e-06	2.27858e-07
2	1	0	1	0	4.6265	0.132849	0.132719	0.00173079	1	3.61553e-06	2.29709e-07
2	1	0	1	0	4.7265	0.137849	0.137706	0.0016795	1	3.78628e-06	2.31277e-07
2	1	0	1	0	4.8265	0.14285	0.142712	0.00163274	1	3.95224e-06	2.33011e-07
2	1	0	0	0	4.9267	0.14785	0.147686	0.00159023	1	4.11394e-06	2.34854e-07
2	1	0	0	0	5.0267	0.15285	0.152756	0.00155206	1	4.27111e-06	2.37086e-07
2	1	0	0	0	5.1267	0.15785	0.15777	0.00151126	1	4.42437e-06	2.38432e-07
2	1	0	0	0	5.2267	0.16285	0.162685	0.00147556	1	4.57392e-06	2.40052e-07
2	1	0	0	0	5.3267	0.167851	0.16774	0.00144274	1	4.72007e-06	2.42006e-07
2	1	0	0	0	5.4267	0.172851	0.172706	0.00141245	1	4.86299e-06	2.43938e-07
2	1	0	0	0	5.5267	0.177851	0.1777	0.0013818	1	5.0029e-06	2.45546e-07
2	1	0	0	0	5.6267	0.182851	0.182758	0.00135445	1	5.14e-06	2.47536e-07
2	1	0	0	0	5.7267	0.187851	0.187699	0.00133027	1	5.27448e-06	2.49691e-07
2	1	0	0	0	5.8267	0.192852	0.192708	0.00130665	1	5.40655e-06	2.51803e-07
2	1	0	0	0	5.9267	0.197852	0.197715	0.00128514	1	5.53638e-06	2.54093e-07
2	1	0	0	0	6.0267	0.202852	0.202662	0.00126561	1	5.66415e-06	2.56491e-07
2	1	0	0	0	6.1267	0.207852	0.207679	0.00124628	1	5.79003e-06	2.58825e-07
2	1	0	0	0	6.2267	0.212852	0.212696	0.00123025	1	5.91413e-06	2.61669e-07
2	1	0	0	0	6.3267	0.217853	0.217729	0.00121269	1	6.03657e-06	2.64039e-07
2	1	0	0	0	6.4267	0.222853	0.222685	0.00119829	1	6.15746e-06	2.66841e-07
2	1	0	0	0	6.5267	0.227853	0.227686	0.00118425	1	6.27687e-06	2.69636e-07
2	1	0	0	0	6.6267	0.232853	0.232692	0.00117086	1	6.39491e-06	2.72449e-07
2	1	0	0	0	6.7267	0.237853	0.237687	0.0011577	1	6.51164e-06	2.7517e-07
2	1	0	0	0	6.8267	0.242854	0.242688	0.00114602	1	6.62713e-06	2.78126e-07
2	1	0	0	0	6.9267	0.247854	0.247681	0.00113547	1	6.74148e-06	2.81234e-07
2	1	0	0	0	7.0267	0.252854	0.252747	0.00112546	1	6.85473e-06	2.84457e-07
2	1	0	0	0	7.1267	0.257854	0.257757	0.00111452	1	6.96701e-06	2.87277e-07
2	1	0	0	0	7.2267	0.262854	0.262701	0.00110567	1	7.07832e-06	2.90459e-07
2	1	0	0	0	7.3267	0.267855	0.267742	0.00109938	1	7.18878e-06	2.94349e-07
2	1	0	0	0	7.4267	0.272855	0.272768	0.00109354	1	7.29858e-06	2.98282e-07
2	1	0	0	0	7.5267	0.277855	0.277735	0.00108636	1	7.40782e-06	3.01722e-07
2	1	0	0	0	7.6267	0.282855	0.282668	0.0010797	1	7.51637e-06	3.05195e-07
2	1	0	0	0	7.7267	0.287855	0.287734	0.00107361	1	7.62433e-06	3.08914e-07
2	1	0	0	0	7.8267	0.292856	0.292671	0.0010665	1	7.73155e-06	3.12135e-07
2	1	0	0	0	7.9267	0.297856	0.297728	0.00105923	1	7.83806e-06	3.15363e-07
2	0	0	1	0	8.0153	0.297706	0.297547	0.000935344	1	7.92698e-06	2.78309e-07
2	0	0	1	0	8.1153	0.292706	0.292483	0.000890357	1	8.01792e-06	2.60414e-07
2	0	0	1	0	8.2153	0.287705	0.287535	0.000858594	1	8.10513e-06	2.46876e-07
2	0	0	1	0	8.3153	0.282705	0.282543	0.000833992	1	8.18954e-06	2.35639e-07
2	0	0	1	0	8.4153	0.277705	0.277528	0.000811834	1	8.27158e-06	2.25306e-07
2	0	0	1	0	8.5153	0.272705	0.272525	0.000792425	1	8.35161e-06	2.15955e-07
2	0	0	1	0	8.6153	0.267705	0.267522	0.000776603	1	8.42987e-06	2.07759e-07
2	0	0	1	0	8.7153	0.262704	0.262516	0.000760762	1	8.5065e-06	1.99712e-07
2	0	0	1	0	8.8153	0.257704	0.257542	0.000746477	1	8.58168e-06	1.92249e-07
2	0	0	1	0	8.9153	0.252704	0.252522	0.000732867	1	8.65545e-06	1.85065e-07
2	0	0	1	0	9.0153	0.247704	0.247534	0.000720992	1	8.72799e-06	1.7847e-07
2	0	0	1	0	9.1153	0.242704	0.24251	0.000709305	1	8.79935e-06	1.72013e-07
2	0	0	1	0	9.2153	0.237703	0.237563	0.000697294	1	8.86953e-06	1.65651e-07
2	0	0	1	0	9.3153	0.232703	0.232547	0.000687949	1	8.93862e-06	1.5998e-07
2	0	0	1	0	9.4153	0.227703	0.227552	0.000676708	1	9.00668e-06	1.53986e-07
2	0	0	1	0	9.5153	0.222703	0.222519	0.000668436	1	9.07375e-06	1.4874e-07
2	0	0	1	0	9.6153	0.217703	0.217579	0.000659099	1	9.13983e-06	1.43406e-07
2	0	0	1	0	9.7153	0.212702	0.212572	0.000647435	1	9.20497e-06	1.37626e-07
2	0	0	1	0	9.8153	0.207702	0.207534	0.000638582	1	9.26912e-06	1.32527e-07
2	0	0	1	0	9.9153	0.202702	0.202555	0.00062937	1	9.33237e-06	1.27482e-07
2	0	0	1	0	10.0153	0.197702	0.197505	0.000620097	1	9.3947e-06	1.22472e-07
2	0	0	1	0	10.1153	0.192702	0.192564	0.000611154	1	9.45613e-06	1.17686e-07
2	0	0	1	0	10.2153	0.187701	0.187553	0.000601988	1	9.51659e-06	1.12904e-07
2	0	0	1	0	10.3153	0.182701	0.182507	0.000591774	1	9.57609e-06	1.08003e-07
2	0	0	1	0	10.4153	0.177701	0.177546	0.000583188	1	9.63461e-06	1.03543e-07
2	0	0	1	0	10.5153	0.172701	0.172543	0.000571376	1	9.69215e-06	9.85872e-08
2	0	0	1	0	10.6153	0.167701	0.167544	0.000561484	1	9.74867e-06	9.40733e-08
2	0	0	1	0	10.7153	0.1627	0.162581	0.000550036	1	9.80411e-06	8.94257e-08
2	0	0	1	0	10.8153	0.1577	0.1576	0.000539436	1	9.85847e-06	8.50151e-08
2	0	0	1	0	10.9153	0.1527	0.152567	0.00052474	1	9.91166e-06	8.00577e-08
2	0	0	1	0	11.0153	0.1477	0.147511	0.000514124	1	9.96354e-06	7.58388e-08
2	0	0	0	0	11.1155	0.1427	0.142507	0.000503884	1	1.00144e-05	7.1807e-08
2	0	0	0	0	11.2155	0.137699	0.137528	0.000486746	1	1.00636e-05	6.6941e-08
2	0	0	0	0	11.3155	0.132699	0.132506	0.00047046	1	1.01113e-05	6.23387e-08
2	0	0	0	0	11.4155	0.127699	0.12751	0.000451431	1	1.01572e-05	5.75622e-08
2	0	0	0	0	11.5155	0.122699	0.122541	0.000430172	1	1.02011e-05	5.27136e-08
2	0	0	0	0	11.6155	0.117699	0.117559	0.000407052	1	1.02428e-05	4.78526e-08
2	0	0	0	0	11.7155	0.112698	0.112568	0.000376847	1	1.02819e-05	4.24209e-08
2	0	0	0	0	11.8155	0.107698	0.107545	0.000343663	1	1.03178e-05	3.69593e-08
2	0	0	0	0	11.9155	0.102698	0.1025	0.000304419	1	1.03501e-05	3.1203e-08
2	0	0	0	0	12.0155	0.0976978	0.0975715	0.000254326	1	1.03779e-05	2.48149e-08
2	0	0	0	0	12.1155	0.0926976	0.0924935	0.000194289	1	1.04004e-05	1.79705e-08
2	0	0	0	0	12.2155	0.0876974	0.0875406	0.000122521	1	1.04163e-05	1.07255e-08
2	0	0	0	0	12.3155	0.0826972	0.0825474	3.5358e-05	1	1.04242e-05	2.91871e-09
2	0	0	0	0	12.4155	0.077697	0.0775882	-6.87357e-05	1	1.04225e-05	-5.33308e-09
2	0	0	0	0	12.5155	0.0726968	0.0725854	-0.000194402	1	1.04093e-05	-1.41108e-08
2	0	0	0	0	12.6155	0.0676966	0.0675583	-0.000339367	1	1.03827e-05	-2.29271e-08
2	0	0	0	0	12.7155	0.0626964	0.0625143	-0.000503513	1	1.03406e-05	-3.14767e-08
2	0	0	0	0	12.8155	0.0576962	0.0575412	-0.000681495	1	1.02812e-05	-3.9214e-08
2	0	0	0	0	12.9155	0.052696	0.0524908	-0.000869844	1	1.02035e-05	-4.56588e-08
2	0	0	0	0	13.0155	0.0476958	0.0475464	-0.00105694	1	1.0107e-05	-5.02534e-08
2	0	0	0	0	13.1155	0.0426956	0.0424864	-0.00122757	1	9.99242e-06	-5.21549e-08
2	0	0	0	0	13.2155	0.0376954	0.0375695	-0.00137495	1	9.86188e-06	-5.16561e-08
2	0	0	0	0	13.3155	0.0326952	0.0325721	-0.00148809	1	9.71829e-06	-4.84703e-08
2	0	0	0	0	13.4155	0.027695	0.0275482	-0.00155864	1	9.56551e-06	-4.29377e-08
2	0	0	0	0	13.5155	0.0226948	0.022573	-0.0015908	1	9.40756e-06	-3.59091e-08
2	0	0	0	0	13.6155	0.0176946	0.0175862	-0.00158493	1	9.2483e-06	-2.78728e-08
2	0	0	0	0	13.7155	0.0126944	0.0125453	-0.00155301	1	9.09096e-06	-1.94829e-08
2	0	0	0	0	13.8155	0.00769417	0.00747048	-0.0015006	1	8.93799e-06	-1.12102e-08
2	0	0	0	0	13.9155	0.00269396	0.00261087	-0.00143435	1	8.79102e-06	-3.74488e-09
2	0	0	0	0	14.0155	-0.00230624	-0.00247879	-0.00136466	1	8.65088e-06	3.38272e-09
2	0	0	0	0	14.1155	-0.00730644	-0.00748576	-0.0012915	1	8.518e-06	9.66786e-09
2	0	0	0	0	14.2155	-0.0123066	-0.0124524	-0.00122042	1	8.39235e-06	1.51972e-08
2	0	0	0	0	14.3155	-0.0173068	-0.0174319	-0.00115274	1	8.2736e-06	2.00944e-08
2	0	0	0	0	14.4155	-0.0223071	-0.0224802	-0.00109164	1	8.16136e-06	2.45403e-08
2	0	0	0	0	14.5155	-0.0273073	-0.0274553	-0.00103222	1	8.05512e-06	2.83399e-08
2	0	0	0	0	14.6155	-0.0323075	-0.0324846	-0.000981293	1	7.95437e-06	3.18769e-08
2	0	0	0	0	14.7155	-0.0373077	-0.0374725	-0.000932696	1	7.85863e-06	3.49504e-08
2	0	0	0	0	14.8155	-0.0423079	-0.0424879	-0.00088946	1	7.76741e-06	3.77913e-08
2	0	0	0	0	14.9155	-0.0473081	-0.0475097	-0.000852261	1	7.68031e-06	4.04907e-08
2	0	0	0	0	15.0155	-0.0523083	-0.0524849	-0.000817029	1	7.59694e-06	4.28817e-08
2	0	0	0	0	15.1155	-0.0573085	-0.0574643	-0.000783197	1	7.51694e-06	4.50059e-08
2	0	0	0	0	15.2155	-0.0623087	-0.0625274	-0.0007535	1	7.44006e-06	4.71144e-08
2	0	0	0	0	15.3155	-0.0673089	-0.0674994	-0.000725499	1	7.366e-06	4.89708e-08
2	0	0	0	0	15.4155	-0.0723091	-0.0724587	-0.000701146	1	7.29455e-06	5.08041e-08
2	0	0	0	0	15.5155	-0.0773093	-0.077471	-0.00067852	1	7.22549e-06	5.25656e-08
2	0	0	0	0	15.6155	-0.0823095	-0.082444	-0.000656689	1	7.15863e-06	5.41401e-08
2	0	0	0	0	15.7155	-0.0873097	-0.087486	-0.000636611	1	7.0938e-06	5.56945e-08
2	0	0	0	0	15.8155	-0.0923099	-0.0925269	-0.00062145	1	7.03086e-06	5.75008e-08
2	0	0	0	0	15.9155	-0.0973101	-0.0975041	-0.000602087	1	6.96966e-06	5.87059e-08
2	0	0	1	0	16.0157	-0.10231	-0.102473	-0.000586986	1	6.91e-06	6.01502e-08
2	0	0	1	0	16.1157	-0.107311	-0.107516	-0.000572399	1	6.85195e-06	6.1542e-08
2	0	0	1	0	16.2157	-0.112311	-0.112503	-0.000558086	1	6.79531e-06	6.27862e-08
2	0	0	1	0	16.3157	-0.117311	-0.117479	-0.000545071	1	6.74001e-06	6.40344e-08
2	0	0	1	0	16.4157	-0.122311	-0.12247	-0.000532828	1	6.68594e-06	6.52555e-08
2	0	0	1	0	16.5157	-0.127311	-0.127479	-0.000522731	1	6.63305e-06	6.66373e-08
2	0	0	1	0	16.6157	-0.132312	-0.132467	-0.000510715	1	6.58125e-06	6.76528e-08
2	0	0	1	0	16.7157	-0.137312	-0.137463	-0.00050142	1	6.5305e-06	6.89269e-08
2	0	0	1	0	16.8157	-0.142312	-0.142432	-0.000491221	1	6.48074e-06	6.99656e-08
2	0	0	1	0	16.9157	-0.147312	-0.147475	-0.000482793	1	6.43192e-06	7.12e-08
2	0	0	1	0	17.0157	-0.152312	-0.15242	-0.000473263	1	6.384e-06	7.21346e-08
2	0	0	1	0	17.1157	-0.157313	-0.157463	-0.000465401	1	6.33687e-06	7.32833e-08
2	0	0	1	0	17.2157	-0.162313	-0.162453	-0.000458005	1	6.29057e-06	7.44042e-08
2	0	0	1	0	17.3157	-0.167313	-0.167505	-0.000452045	1	6.245e-06	7.572e-08
2	0	0	1	0	17.4157	-0.172313	-0.172423	-0.000444238	1	6.20012e-06	7.65969e-08
2	0	0	1	0	17.5157	-0.177313	-0.177511	-0.000437038	1	6.1559e-06	7.75789e-08
2	0	0	1	0	17.6157	-0.182314	-0.182478	-0.000432315	1	6.11227e-06	7.88881e-08
2	0	0	1	0	17.7157	-0.187314	-0.187523	-0.000426678	1	6.06922e-06	8.00118e-08
2	0	0	1	0	17.8157	-0.192314	-0.192495	-0.00042133	1	6.02668e-06	8.11036e-08
2	0	0	1	0	17.9157	-0.197314	-0.197442	-0.00041602	1	5.98462e-06	8.21398e-08
2	1	0	0	1	18.0051	-0.198214	-0.198316	-0.00031106	1	5.9509e-06	6.16882e-08
2	1	0	0	1	18.1051	-0.193214	-0.193344	-0.000284368	1	5.92156e-06	5.49808e-08
2	1	0	0	1	18.2051	-0.188214	-0.188353	-0.000267717	1	5.89423e-06	5.04251e-08
2	1	0	0	1	18.3051	-0.183214	-0.183297	-0.000255027	1	5.86838e-06	4.67456e-08
2	1	0	0	1	18.4051	-0.178213	-0.178306	-0.000242169	1	5.84378e-06	4.31802e-08
2	1	0	0	1	18.5051	-0.173213	-0.173292	-0.000231848	1	5.82025e-06	4.01775e-08
2	1	0	0	1	18.6051	-0.168213	-0.168313	-0.000222647	1	5.79769e-06	3.74744e-08
2	1	0	0	1	18.7051	-0.163213	-0.163324	-0.000214465	1	5.77602e-06	3.50273e-08
2	1	0	0	1	18.8051	-0.158213	-0.158287	-0.000207241	1	5.75518e-06	3.28036e-08
2	1	0	0	1	18.9051	-0.153212	-0.153319	-0.000199744	1	5.73512e-06	3.06245e-08
2	1	0	0	1	19.0051	-0.148212	-0.148339	-0.000191571	1	5.71575e-06	2.84175e-08
2	1	0	0	1	19.1051	-0.143212	-0.143294	-0.000187081	1	5.69706e-06	2.68076e-08
2	1	0	0	1	19.2051	-0.138212	-0.138309	-0.000180791	1	5.67903e-06	2.5005e-08
2	1	0	0	1	19.3051	-0.133212	-0.133345	-0.000173951	1	5.66161e-06	2.31955e-08
2	1	0	0	1	19.4051	-0.128211	-0.128322	-0.000168371	1	5.64477e-06	2.16057e-08
2	1	0	0	1	19.5051	-0.123211	-0.123316	-0.000162038	1	5.62851e-06	1.99819e-08
2	1	0	0	1	19.6051	-0.118211	-0.118379	-0.000156614	1	5.61278e-06	1.85398e-08
2	1	0	0	1	19.7051	-0.113211	-0.113334	-0.000152253	1	5.59756e-06	1.72554e-08
2	1	0	0	1	19.8051	-0.108211	-0.108329	-0.000146835	1	5.58283e-06	1.59065e-08
2	1	0	0	1	19.9051	-0.10321	-0.103327	-0.000142456	1	5.56857e-06	1.47196e-08
2	1	0	1	1	20.0053	-0.0982101	-0.0983883	-0.000137945	2	5.55472e-06	1.35722e-08
2	1	0	1	1	20.1053	-0.09321	-0.0933453	-0.000134442	2	5.54136e-06	1.25495e-08
2	1	0	1	1	20.2053	-0.0882097	-0.0883033	-0.000128565	2	5.52844e-06	1.13527e-08
2	1	0	1	1	20.3053	-0.0832095	-0.0833557	-0.000126446	2	5.51592e-06	1.054e-08
2	1	0	1	1	20.4053	-0.0782093	-0.0784208	-0.000121703	2	5.50382e-06	9.54404e-09
2	1	0	1	1	20.5053	-0.0732091	-0.073346	-0.000118227	2	5.49213e-06	8.67145e-09
2	1	0	1	1	20.6053	-0.0682089	-0.0683454	-0.000112844	2	5.48085e-06	7.7124e-09
2	1	0	1	1	20.7053	-0.0632087	-0.0633628	-0.000108863	2	5.46999e-06	6.89786e-09
2	1	0	1	1	20.8053	-0.0582085	-0.0583548	-0.000104745	2	5.45953e-06	6.1124e-09
2	1	0	1	1	20.9053	-0.0532083	-0.0533393	-0.000100794	2	5.44951e-06	5.37629e-09
2	1	0	1	1	21.0053	-0.0482081	-0.0483462	-9.49985e-05	2	5.43999e-06	4.59281e-09
2	1	0	1	1	21.1053	-0.0432079	-0.043318	-9.13385e-05	2	5.43082e-06	3.9566e-09
2	1	0	1	1	21.2053	-0.0382077	-0.0383312	-8.61541e-05	2	5.42227e-06	3.30239e-09
2	1	0	1	1	21.3053	-0.0332075	-0.0333231	-7.79563e-05	2	5.41443e-06	2.59775e-09
2	1	0	1	1	21.4053	-0.0282073	-0.0283829	-7.14206e-05	2	5.40719e-06	2.02713e-09
2	1	0	1	1	21.5053	-0.0232071	-0.0233367	-6.2601e-05	2	5.40073e-06	1.4609e-09
2	1	0	1	1	21.6053	-0.0182069	-0.0183436	-5.14939e-05	2	5.39521e-06	9.44581e-10
2	1	0	1	1	21.7053	-0.0132067	-0.0133154	-3.95036e-05	2	5.39083e-06	5.26006e-10
2	1	0	1	1	21.8053	-0.00820648	-0.0083646	-2.42967e-05	2	5.38786e-06	2.03232e-10
2	1	0	1	1	21.9053	-0.00320627	-0.00338414	-3.92132e-06	2	5.38668e-06	1.32703e-11
2	1	0	1	1	22.0053	0.00179393	0.00170022	2.13611e-05	2	5.38787e-06	3.63186e-11
2	1	0	1	1	22.1053	0.00679413	0.00668598	5.54861e-05	2	5.39192e-06	3.70979e-10
2	1	0	1	1	22.2053	0.0117943	0.0117078	9.8058e-05	2	5.39972e-06	1.14804e-09
2	1	0	1	1	22.3053	0.0167945	0.016683	0.000151961	2	5.41231e-06	2.53516e-09
2	1	0	1	1	22.4053	0.0217947	0.021691	0.000218837	2	5.43092e-06	4.74679e-09
2	1	0	1	1	22.5053	0.0267949	0.0266375	0.00030293	2	5.45709e-06	8.0693e-09
2	1	0	1	1	22.6053	0.0317951	0.031654	0.000404779	2	5.49252e-06	1.28129e-08
2	1	0	1	1	22.7053	0.0367953	0.0366917	0.000526243	2	5.5391e-06	1.93088e-08
2	1	0	1	1	22.8053	0.0417955	0.0416796	0.000664022	2	5.59876e-06	2.76762e-08
2	1	0	1	1	22.9053	0.0467957	0.0466463	0.000820659	2	5.67326e-06	3.82807e-08
2	1	0	1	1	23.0053	0.0517959	0.0516808	0.000992527	2	5.76411e-06	5.12946e-08
2	1	0	1	1	23.1053	0.0567961	0.0566899	0.00116414	2	5.87222e-06	6.59952e-08
2	1	0	1	1	23.2053	0.0617963	0.0616651	0.00133719	2	5.99766e-06	8.2458e-08
2	1	0	1	1	23.3053	0.0667965	0.0666805	0.00149648	2	6.13973e-06	9.97859e-08
2	1	0	1	1	23.4053	0.0717967	0.0717342	0.00163765	2	6.29682e-06	1.17475e-07
2	1	0	1	1	23.5053	0.0767969	0.0766796	0.00175123	2	6.4666e-06	1.34284e-07
2	1	0	1	1	23.6053	0.0817971	0.0816696	0.00183339	2	6.64629e-06	1.49732e-07
2	1	0	1	1	23.7053	0.0867973	0.086648	0.00188619	2	6.83277e-06	1.63434e-07
2	1	0	1	1	23.8053	0.0917976	0.0917005	0.00191036	2	7.02314e-06	1.75181e-07
2	1	0	1	1	23.9053	0.0967978	0.0967064	0.0019124	2	7.21469e-06	1.84942e-07
2	1	0	1	1	24.0053	0.101798	0.101694	0.00189284	2	7.40525e-06	1.92491e-07
2	1	0	1	1	24.1053	0.106798	0.106708	0.0018599	2	7.59313e-06	1.98465e-07
2	1	0	1	1	24.2053	0.111798	0.111661	0.00181633	2	7.77713e-06	2.02812e-07
2	1	0	1	1	24.3053	0.116799	0.116668	0.00176751	2	7.95651e-06	2.06211e-07
2	1	0	1	1	24.4053	0.121799	0.121606	0.00171452	2	8.13081e-06	2.08495e-07
2	1	0	1	1	24.5053	0.126799	0.126644	0.0016615	2	8.29987e-06	2.10419e-07
2	1	0	1	1	24.6053	0.131799	0.131658	0.00161049	2	8.4637e-06	2.12033e-07
2	1	0	1	1	24.7053	0.136799	0.136625	0.00155961	2	8.62243e-06	2.13082e-07
2	1	0	1	1	24.8053	0.1418	0.141688	0.00151162	2	8.77626e-06	2.14177e-07
2	1	0	1	1	24.9053	0.1468	0.14665	0.00146708	2	8.92546e-06	2.15148e-07
2	1	0	0	1	25.0055	0.1518	0.151673	0.00142568	2	9.07057e-06	2.16237e-07
2	1	0	0	1	25.1055	0.1568	0.156654	0.00138588	2	9.2114e-06	2.17105e-07
2	1	0	0	1	25.2055	0.1618	0.161633	0.0013488	2	9.34842e-06	2.1801e-07
2	1	0	0	1	25.3055	0.166801	0.166664	0.00131473	2	9.48191e-06	2.19118e-07
2	1	0	0	1	25.4055	0.171801	0.171666	0.0012846	2	9.61212e-06	2.20523e-07
2	1	0	0	1	25.5055	0.176801	0.176679	0.00125336	2	9.73925e-06	2.21443e-07
2	1	0	0	1	25.6055	0.181801	0.181658	0.00122721	2	9.86353e-06	2.22933e-07
2	1	0	0	1	25.7055	0.186801	0.186655	0.00120026	2	9.98513e-06	2.24034e-07
2	1	0	0	1	25.8055	0.191802	0.191689	0.00117722	2	1.01043e-05	2.25661e-07
2	1	0	0	1	25.9055	0.196802	0.196644	0.00115473	2	1.02211e-05	2.27072e-07
2	1	0	0	1	26.0055	0.201802	0.201636	0.00113341	2	1.03358e-05	2.28537e-07
2	1	0	0	1	26.1055	0.206802	0.206606	0.00111675	2	1.04486e-05	2.30729e-07
2	1	0	0	1	26.2055	0.211802	0.211667	0.0010983	2	1.05595e-05	2.32474e-07
2	1	0	0	1	26.3055	0.216803	0.216689	0.00108255	2	1.06687e-05	2.34577e-07
2	1	0	0	1	26.4055	0.221803	0.221669	0.00106542	2	1.07763e-05	2.36171e-07
2	1	0	0	1	26.5055	0.226803	0.226618	0.00105092	2	1.08824e-05	2.38158e-07
2	1	0	0	1	26.6055	0.231803	0.231667	0.00103696	2	1.09871e-05	2.4023e-07
2	1	0	0	1	26.7055	0.236803	0.23665	0.00102363	2	1.10904e-05	2.42242e-07
2	1	0	0	1	26.8055	0.241804	0.24165	0.00101138	2	1.11924e-05	2.444e-07
2	1	0	0	1	26.9055	0.246804	0.24668	0.00100015	2	1.12932e-05	2.46717e-07
2	1	0	0	1	27.0055	0.251804	0.25158	0.000988834	2	1.13929e-05	2.48771e-07
2	1	0	0	1	27.1055	0.256804	0.256678	0.000980463	2	1.14916e-05	2.51663e-07
2	1	0	0	1	27.2055	0.261804	0.261647	0.000970416	2	1.15893e-05	2.53906e-07
2	1	0	0	1	27.3055	0.266805	0.266674	0.000960863	2	1.16861e-05	2.56237e-07
2	1	0	0	1	27.4055	0.271805	0.271696	0.000954304	2	1.17822e-05	2.59281e-07
2	1	0	0	1	27.5055	0.276805	0.276639	0.000947331	2	1.18775e-05	2.62069e-07
2	1	0	0	1	27.6055	0.281805	0.281672	0.000941198	2	1.19721e-05	2.65109e-07
2	1	0	0	1	27.7055	0.286805	0.286676	0.000934399	2	1.20662e-05	2.6787e-07
2	1	0	0	1	27.8055	0.291806	0.291694	0.000931417	2	1.21598e-05	2.71689e-07
2	1	0	0	1	27.9055	0.296806	0.296637	0.000927812	2	1.2253e-05	2.75224e-07
2	0	0	0	1	27.9951	0.298706	0.298528	0.000821512	2	1.23336e-05	2.45244e-07
2	0	0	0	1	28.0951	0.293706	0.293537	0.000780399	2	1.24133e-05	2.29076e-07
2	0	0	0	1	28.1951	0.288705	0.288548	0.000753599	2	1.24897e-05	2.17449e-07
2	0	0	0	1	28.2951	0.283705	0.283541	0.000733636	2	1.25639e-05	2.08015e-07
2	0	0	0	1	28.3951	0.278705	0.27855	0.000715394	2	1.26361e-05	1.99273e-07
2	0	0	0	1	28.4951	0.273705	0.273602	0.000699668	2	1.27067e-05	1.9143e-07
2	0	0	0	1	28.5951	0.268705	0.268513	0.000686224	2	1.27757e-05	1.8426e-07
2	0	0	0	1	28.6951	0.263704	0.263538	0.000673748	2	1.28435e-05	1.77558e-07
2	0	0	0	1	28.7951	0.258704	0.258514	0.000662169	2	1.29099e-05	1.7118e-07
2	0	0	0	1	28.8951	0.253704	0.253499	0.000650784	2	1.29753e-05	1.64973e-07
2	0	0	0	1	28.9951	0.248704	0.248525	0.000638704	2	1.30395e-05	1.58734e-07
2	0	0	0	1	29.0951	0.243704	0.243508	0.000629697	2	1.31028e-05	1.53336e-07
2	0	0	0	1	29.1951	0.238703	0.238524	0.000620546	2	1.31651e-05	1.48015e-07
2	0	0	0	1	29.2951	0.233703	0.233514	0.000611542	2	1.32264e-05	1.42804e-07
2	0	0	0	1	29.3951	0.228703	0.228545	0.000601098	2	1.32868e-05	1.37378e-07
2	0	0	0	1	29.4951	0.223703	0.223552	0.000593509	2	1.33464e-05	1.3268e-07
2	0	0	0	1	29.5951	0.218703	0.218525	0.000585437	2	1.34051e-05	1.27933e-07
2	0	0	0	1	29.6951	0.213702	0.213573	0.00057594	2	1.34629e-05	1.23006e-07
2	0	0	0	1	29.7951	0.208702	0.208492	0.000567149	2	1.35199e-05	1.18246e-07
2	0	0	0	1	29.8951	0.203702	0.203503	0.000557605	2	1.3576e-05	1.13475e-07
2	0	0	0	1	29.9951	0.198702	0.198511	0.000550727	2	1.36313e-05	1.09325e-07
2	0	0	0	1	30.0951	0.193702	0.193545	0.000542086	2	1.36858e-05	1.04918e-07
2	0	0	0	1	30.1951	0.188701	0.18848	0.000532212	2	1.37394e-05	1.00311e-07
2	0	0	0	1	30.2951	0.183701	0.183553	0.000524323	2	1.37922e-05	9.6241e-08
2	0	0	0	1	30.3951	0.178701	0.178527	0.000517261	2	1.3844e-05	9.23449e-08
2	0	0	0	1	30.4951	0.173701	0.173588	0.000507521	2	1.3895e-05	8.80994e-08
2	0	0	0	1	30.5951	0.168701	0.168532	0.00049752	2	1.39451e-05	8.3848e-08
2	0	0	0	1	30.6951	0.1637	0.163585	0.000486603	2	1.39942e-05	7.96012e-08
2	0	0	0	1	30.7951	0.1587	0.158571	0.000478135	2	1.40423e-05	7.58184e-08
2	0	0	0	1	30.8951	0.1537	0.153545	0.00046704	2	1.40893e-05	7.17117e-08
2	0	0	0	1	30.9951	0.1487	0.148536	0.000455365	2	1.41352e-05	6.7638e-08
2	0	0	1	1	31.0953	0.1437	0.14348	0.000443244	2	1.41801e-05	6.35967e-08
2	0	0	1	1	31.1953	0.138699	0.138509	0.000430231	2	1.42235e-05	5.95909e-08
2	0	0	1	1	31.2953	0.133699	0.133545	0.000415312	2	1.42656e-05	5.54627e-08
2	0	0	1	1	31.3953	0.128699	0.128518	0.000396667	2	1.4306e-05	5.09787e-08
2	0	0	1	1	31.4953	0.123699	0.123532	0.000379033	2	1.43447e-05	4.68227e-08
2	0	0	1	1	31.5953	0.118699	0.118583	0.000357141	2	1.43813e-05	4.23509e-08
2	0	0	1	1	31.6953	0.113698	0.113518	0.000330498	2	1.44155e-05	3.75174e-08
2	0	0	1	1	31.7953	0.108698	0.108542	0.00029901	2	1.44469e-05	3.24551e-08
2	0	0	1	1	31.8953	0.103698	0.103558	0.000263403	2	1.4475e-05	2.72775e-08
2	0	0	1	1	31.9953	0.0986978	0.0985659	0.000219033	2	1.4499e-05	2.15892e-08
2	0	0	1	1	32.0953	0.0936976	0.0935133	0.000164785	2	1.45181e-05	1.54096e-08
2	0	0	1	1	32.1953	0.0886974	0.0884862	9.89112e-05	2	1.45314e-05	8.75228e-09
2	0	0	1	1	32.2953	0.0836972	0.0835196	1.99904e-05	2	1.45373e-05	1.66959e-09
2	0	0	1	1	32.3953	0.078697	0.0785582	-7.61175e-05	2	1.45346e-05	-5.97965e-09
2	0	0	1	1	32.4953	0.0736968	0.0735777	-0.000189396	2	1.45213e-05	-1.39354e-08
2	0	0	1	1	32.5953	0.0686966	0.0685845	-0.000323508	2	1.44957e-05	-2.21877e-08
2	0	0	1	1	32.6953	0.0636964	0.063567	-0.00047698	2	1.44556e-05	-3.03202e-08
2	0	0	1	1	32.7953	0.0586962	0.0585844	-0.000645296	2	1.43993e-05	-3.78043e-08
2	0	0	1	1	32.8953	0.053696	0.0535276	-0.000826424	2	1.43255e-05	-4.42365e-08
2	0	0	1	1	32.9953	0.0486958	0.0484835	-0.00101394	2	1.42332e-05	-4.91593e-08
2	0	0	1	1	33.0953	0.0436956	0.0435412	-0.00119026	2	1.41228e-05	-5.18253e-08
2	0	0	1	1	33.1953	0.0386954	0.0385374	-0.00134656	2	1.39956e-05	-5.18928e-08
2	0	0	1	1	33.2953	0.0336952	0.0335591	-0.00147399	2	1.3854e-05	-4.94656e-08
2	0	0	1	1	33.3953	0.028695	0.0285468	-0.00156607	2	1.37015e-05	-4.47063e-08
2	0	0	1	1	33.4953	0.0236948	0.0234996	-0.00161744	2	1.35418e-05	-3.80092e-08
2	0	0	1	1	33.5953	0.0186946	0.0185445	-0.00162993	2	1.33789e-05	-3.02262e-08
2	0	0	1	1	33.6953	0.0136944	0.0135768	-0.00161223	2	1.32164e-05	-2.18889e-08
2	0	0	1	1	33.7953	0.00869421	0.00857195	-0.00156974	2	1.30569e-05	-1.34557e-08
2	0	0	1	1	33.8953	0.003694	0.00353424	-0.00151196	2	1.29026e-05	-5.34364e-09
2	0	0	1	1	33.9953	-0.0013062	-0.00151196	-0.00144492	2	1.27546e-05	2.18466e-09
2	0	0	1	1	34.0953	-0.0063064	-0.00644472	-0.00137221	2	1.26136e-05	8.84351e-09
2	0	0	1	1	34.1953	-0.0113066	-0.0114793	-0.00130101	2	1.24799e-05	1.49346e-08
2	0	0	1	1	34.2953	-0.0163068	-0.0164618	-0.00123192	2	1.23531e-05	2.02797e-08
2	0	0	1	1	34.3953	-0.021307	-0.0214476	-0.00116653	2	1.2233e-05	2.50192e-08
2	0	0	1	1	34.4953	-0.0263072	-0.0264238	-0.00110848	2	1.21191e-05	2.92903e-08
2	0	0	1	1	34.5953	-0.0313074	-0.0314944	-0.00105445	2	1.20109e-05	3.32094e-08
2	0	0	1	1	34.6953	-0.0363076	-0.0364844	-0.00100301	2	1.19079e-05	3.65941e-08
2	0	0	1	1	34.7953	-0.0413078	-0.0414585	-0.000958208	2	1.18096e-05	3.97259e-08
2	0	0	1	1	34.8953	-0.046308	-0.0464772	-0.000918453	2	1.17157e-05	4.26871e-08
2	0	0	1	1	34.9953	-0.0513082	-0.0514693	-0.000879907	2	1.16257e-05	4.52882e-08
2	0	0	1	1	35.0953	-0.0563084	-0.0565155	-0.000846586	2	1.15392e-05	4.78452e-08
2	0	0	1	1	35.1953	-0.0613086	-0.061462	-0.000814277	2	1.14559e-05	5.00471e-08
2	0	0	1	1	35.2953	-0.0663089	-0.0664139	-0.000787203	2	1.13757e-05	5.22812e-08
2	0	0	1	1	35.3953	-0.071309	-0.0714452	-0.00076064	2	1.12981e-05	5.43441e-08
2	0	0	1	1	35.4953	-0.0763093	-0.076466	-0.000736497	2	1.12231e-05	5.63169e-08
2	0	0	1	1	35.5953	-0.0813095	-0.0814549	-0.000714171	2	1.11504e-05	5.81728e-08
2	0	0	1	1	35.6953	-0.0863097	-0.0864566	-0.000694633	2	1.10798e-05	6.00556e-08
2	0	0	1	1	35.7953	-0.0913099	-0.0914869	-0.000674998	2	1.10112e-05	6.17535e-08
2	0	0	1	1	35.8953	-0.0963101	-0.0964758	-0.000656628	2	1.09444e-05	6.33487e-08
2	0	0	0	1	35.9955	-0.10131	-0.101447	-0.000640967	2	1.08793e-05	6.5024e-08
2	0	0	0	1	36.0955	-0.10631	-0.106481	-0.000626262	2	1.08158e-05	6.66851e-08
2	0	0	0	1	36.1955	-0.111311	-0.111473	-0.000612334	2	1.07539e-05	6.82589e-08
2	0	0	0	1	36.2955	-0.116311	-0.116459	-0.000599439	2	1.06933e-05	6.98101e-08
2	0	0	0	1	36.3955	-0.121311	-0.121457	-0.000585419	2	1.0634e-05	7.1103e-08
2	0	0	0	1	36.4955	-0.126311	-0.126446	-0.000573165	2	1.0576e-05	7.24742e-08
2	0	0	0	1	36.5955	-0.131311	-0.131464	-0.00056295	2	1.05191e-05	7.40078e-08
2	0	0	0	1	36.6955	-0.136312	-0.136451	-0.000550921	2	1.04634e-05	7.51738e-08
2	0	0	0	1	36.7955	-0.141312	-0.141483	-0.000540461	2	1.04087e-05	7.64662e-08
2	0	0	0	1	36.8955	-0.146312	-0.146493	-0.000530161	2	1.0355e-05	7.76646e-08
2	0	0	0	1	36.9955	-0.151312	-0.151466	-0.000521864	2	1.03024e-05	7.90444e-08
2	0	0	0	1	37.0955	-0.156313	-0.156491	-0.000513232	2	1.02506e-05	8.03159e-08
2	0	0	0	1	37.1955	-0.161313	-0.161414	-0.000503758	2	1.01997e-05	8.13136e-08
2	0	0	0	1	37.2955	-0.166313	-0.166464	-0.000495831	2	1.01496e-05	8.25381e-08
2	0	0	0	1	37.3955	-0.171313	-0.171476	-0.000487827	2	1.01002e-05	8.36509e-08
2	0	0	0	1	37.4955	-0.176313	-0.176437	-0.000481825	2	1.00516e-05	8.50117e-08
2	0	0	0	1	37.5955	-0.181314	-0.181499	-0.000475634	2	1.00036e-05	8.6327e-08
2	0	0	0	1	37.6955	-0.186314	-0.186469	-0.000469305	2	9.95632e-06	8.75107e-08
2	0	0	0	1	37.7955	-0.191314	-0.191473	-0.000463898	2	9.90955e-06	8.88237e-08
2	0	0	0	1	37.8955	-0.196314	-0.196473	-0.000459053	2	9.86332e-06	9.01915e-08
2	1	0	1	0	37.9849	-0.199214	-0.199334	-0.000357564	2	9.82388e-06	7.12749e-08
2	1	0	1	0	38.0849	-0.194214	-0.194325	-0.000325584	2	9.79021e-06	6.32692e-08
2	1	0	1	0	38.1849	-0.189214	-0.189395	-0.000308545	2	9.75877e-06	5.84368e-08
2	1	0	1	0	38.2849	-0.184214	-0.184343	-0.000295219	2	9.72889e-06	5.44217e-08
2	1	0	1	0	38.3849	-0.179213	-0.179316	-0.000282648	2	9.70032e-06	5.06833e-08
2	1	0	1	0	38.4849	-0.174213	-0.174347	-0.000272205	2	9.67287e-06	4.74582e-08
2	1	0	1	0	38.5849	-0.169213	-0.16934	-0.000261819	2	9.64643e-06	4.43365e-08
2	1	0	1	0	38.6849	-0.164213	-0.164333	-0.000253792	2	9.62094e-06	4.17065e-08
2	1	0	1	0	38.7849	-0.159213	-0.159299	-0.000243768	2	9.5963e-06	3.88319e-08
2	1	0	1	0	38.8849	-0.154212	-0.154325	-0.000238347	2	9.57249e-06	3.67828e-08
2	1	0	1	0	38.9849	-0.149212	-0.149342	-0.000229218	2	9.54942e-06	3.42319e-08
2	1	0	1	0	39.0849	-0.144212	-0.144321	-0.000221979	2	9.52708e-06	3.20364e-08
2	1	0	1	0	39.1849	-0.139212	-0.139287	-0.00021552	2	9.50542e-06	3.00191e-08
2	1	0	1	0	39.2849	-0.134212	-0.134323	-0.000209088	2	9.48441e-06	2.80854e-08
2	1	0	1	0	39.3849	-0.129211	-0.12931	-0.000202392	2	9.46405e-06	2.61713e-08
2	1	0	1	0	39.4849	-0.124211	-0.124344	-0.000196128	2	9.4443e-06	2.43874e-08
2	1	0	1	0	39.5849	-0.119211	-0.11932	-0.00019058	2	9.42512e-06	2.27401e-08
2	1	0	1	0	39.6849	-0.114211	-0.114283	-0.000186215	2	9.40651e-06	2.12812e-08
2	1	0	1	0	39.7849	-0.109211	-0.109374	-0.000181951	2	9.38842e-06	1.99008e-08
2	1	0	1	0	39.8849	-0.10421	-0.104372	-0.000176021	2	9.37083e-06	1.83716e-08
2	1	0	1	0	39.9849	-0.0992102	-0.0993085	-0.000170508	3	9.35372e-06	1.69329e-08
2	1	0	0	0	40.0851	-0.09421	-0.0943799	-0.000166963	3	9.33705e-06	1.5758e-08
2	1	0	0	0	40.1851	-0.0892098	-0.0893783	-0.000162574	3	9.32088e-06	1.45306e-08
2	1	0	0	0	40.2851	-0.0842096	-0.0843756	-0.000158516	3	9.30516e-06	1.33749e-08
2	1	0	0	0	40.3851	-0.0792094	-0.0793962	-0.000152532	3	9.28987e-06	1.21104e-08
2	1	0	0	0	40.4851	-0.0742092	-0.0743722	-0.000149343	3	9.27503e-06	1.1107e-08
2	1	0	0	0	40.5851	-0.069209	-0.0693536	-0.000145053	3	9.26062e-06	1.00599e-08
2	1	0	0	0	40.6851	-0.0642088	-0.0643562	-0.000140102	3	9.24665e-06	9.0164e-09
2	1	0	0	0	40.7851	-0.0592086	-0.0593365	-0.000134824	3	9.23313e-06	7.99996e-09
2	1	0	0	0	40.8851	-0.0542084	-0.0543475	-0.000129869	3	9.22007e-06	7.05805e-09
2	1	0	0	0	40.9851	-0.0492081	-0.0493331	-0.000126052	3	9.20754e-06	6.21853e-09
2	1	0	0	0	41.0851	-0.0442079	-0.0443071	-0.000120569	3	9.1955e-06	5.34205e-09
2	1	0	0	0	41.1851	-0.0392077	-0.0393457	-0.000114265	3	9.18402e-06	4.49582e-09
2	1	0	0	0	41.2851	-0.0342075	-0.034326	-0.000108379	3	9.17317e-06	3.72021e-09
2	1	0	0	0	41.3851	-0.0292073	-0.0293477	-0.000100764	3	9.16301e-06	2.95719e-09
2	1	0	0	0	41.4851	-0.0242071	-0.0243311	-9.1607e-05	3	9.1537e-06	2.2289e-09
2	1	0	0	0	41.5851	-0.0192069	-0.0193666	-7.99735e-05	3	9.14533e-06	1.54881e-09
2	1	0	0	0	41.6851	-0.0142067	-0.0144179	-6.72254e-05	3	9.13814e-06	9.69251e-10
2	1	0	0	0	41.7851	-0.00920652	-0.00935688	-5.2688e-05	3	9.13237e-06	4.92995e-10
2	1	0	0	0	41.8851	-0.00420631	-0.00436157	-3.37416e-05	3	9.12837e-06	1.47167e-10
2	1	0	0	0	41.9851	0.000793888	0.000701583	-6.36955e-06	3	9.12665e-06	-4.46877e-12
2	1	0	0	0	42.0851	0.00579409	0.00575201	2.46678e-05	3	9.12775e-06	1.4189e-10
2	1	0	0	0	42.1851	0.0107943	0.0106678	6.38041e-05	3	9.13242e-06	6.8065e-10
2	1	0	0	0	42.2851	0.0157945	0.0156928	0.000115907	3	9.14164e-06	1.81891e-09
2	1	0	0	0	42.3851	0.0207947	0.0207093	0.000178703	3	9.15657e-06	3.70081e-09
2	1	0	0	0	42.4851	0.0257949	0.0256813	0.000257881	3	9.1786e-06	6.62273e-09
2	1	0	0	0	42.5851	0.0307951	0.0306522	0.0003525	3	9.20933e-06	1.08049e-08
2	1	0	0	0	42.6851	0.0357953	0.0356571	0.000466968	3	9.25049e-06	1.66507e-08
2	1	0	0	0	42.7851	0.0407955	0.0406958	0.000598559	3	9.30393e-06	2.43589e-08
2	1	0	0	0	42.8851	0.0457957	0.0456774	0.000744495	3	9.37132e-06	3.40066e-08
2	1	0	0	0	42.9851	0.0507959	0.0507235	0.000907051	3	9.45419e-06	4.60089e-08
2	1	0	0	0	43.0851	0.0557961	0.0556807	0.00107553	3	9.55361e-06	5.98862e-08
2	1	0	0	0	43.1851	0.0607963	0.0607004	0.00124169	3	9.66979e-06	7.5371e-08
2	1	0	0	0	43.2851	0.0657965	0.0657211	0.00140035	3	9.8024e-06	9.20325e-08
2	1	0	0	0	43.3851	0.0707967	0.0706549	0.00154409	3	9.95016e-06	1.09098e-07
2	1	0	0	0	43.4851	0.0757969	0.0757139	0.00166501	3	1.01111e-05	1.26065e-07
2	1	0	0	0	43.5851	0.0807971	0.0807251	0.00175798	3	1.02828e-05	1.41913e-07
2	1	0	0	0	43.6851	0.0857973	0.0856843	0.00181948	3	1.04622e-05	1.55901e-07
2	1	0	0	0	43.7851	0.0907975	0.0906531	0.00185688	3	1.06466e-05	1.68332e-07
2	1	0	0	0	43.8851	0.0957977	0.0956209	0.00186786	3	1.08333e-05	1.78607e-07
2	1	0	0	0	43.9851	0.100798	0.100679	0.00185577	3	1.10199e-05	1.86836e-07
2	1	0	0	0	44.0851	0.105798	0.105669	0.00182913	3	1.12046e-05	1.93281e-07
2	1	0	0	0	44.1851	0.110798	0.110659	0.00179138	3	1.1386e-05	1.98232e-07
2	1	0	0	0	44.2851	0.115798	0.115631	0.00174808	3	1.15632e-05	2.02132e-07
2	1	0	0	0	44.3851	0.120799	0.120639	0.00169697	3	1.17357e-05	2.04721e-07
2	1	0	0	0	44.4851	0.125799	0.125664	0.00164505	3	1.19031e-05	2.06723e-07
2	1	0	0	0	44.5851	0.130799	0.130601	0.00159297	3	1.20654e-05	2.08043e-07
2	1	0	0	0	44.6851	0.135799	0.135619	0.00154391	3	1.22226e-05	2.09384e-07
2	1	0	0	0	44.7851	0.1408	0.14071	0.00149604	3	1.23749e-05	2.10508e-07
2	1	0	0	0	44.8851	0.1458	0.145648	0.00145018	3	1.25225e-05	2.11216e-07
2	1	0	1	0	44.9853	0.1508	0.150657	0.00140797	3	1.2666e-05	2.1212e-07
2	1	0	1	0	45.0853	0.1558	0.155696	0.0013683	3	1.28052e-05	2.13038e-07
2	1	0	1	0	45.1853	0.1608	0.16066	0.00133316	3	1.29405e-05	2.14186e-07
2	1	0	1	0	45.2853	0.165801	0.165653	0.0012966	3	1.30722e-05	2.14786e-07
2	1	0	1	0	45.3853	0.170801	0.170651	0.00126464	3	1.32006e-05	2.15812e-07
2	1	0	1	0	45.4853	0.175801	0.175652	0.00123528	3	1.33259e-05	2.16978e-07
2	1	0	1	0	45.5853	0.180801	0.180699	0.00120712	3	1.34482e-05	2.18126e-07
2	1	0	1	0	45.6853	0.185801	0.185623	0.00118058	3	1.35678e-05	2.19142e-07
2	1	0	1	0	45.7853	0.190802	0.19064	0.00115611	3	1.36849e-05	2.204e-07
2	1	0	1	0	45.8853	0.195802	0.195597	0.00113393	3	1.37996e-05	2.21794e-07
2	1	0	1	0	45.9853	0.200802	0.200641	0.00111228	3	1.39122e-05	2.23169e-07
2	1	0	1	0	46.0853	0.205802	0.205709	0.00109336	3	1.40227e-05	2.24915e-07
2	1	0	1	0	46.1853	0.210802	0.210608	0.00107434	3	1.41314e-05	2.26264e-07
2	1	0	1	0	46.2853	0.215803	0.215579	0.00105848	3	1.42383e-05	2.28187e-07
2	1	0	1	0	46.3853	0.220803	0.220658	0.00104216	3	1.43436e-05	2.2996e-07
2	1	0	1	0	46.4853	0.225803	0.22571	0.00102652	3	1.44472e-05	2.31696e-07
2	1	0	1	0	46.5853	0.230803	0.230671	0.00101184	3	1.45494e-05	2.33403e-07
2	1	0	1	0	46.6853	0.235803	0.235576	0.000998204	3	1.46502e-05	2.35153e-07
2	1	0	1	0	46.7853	0.240804	0.240583	0.000985419	3	1.47496e-05	2.37075e-07
2	1	0	1	0	46.8853	0.245804	0.24567	0.000971484	3	1.48477e-05	2.38664e-07
2	1	0	1	0	46.9853	0.250804	0.250642	0.00096058	3	1.49446e-05	2.40762e-07
2	1	0	1	0	47.0853	0.255804	0.255643	0.000950819	3	1.50404e-05	2.43071e-07
2	1	0	1	0	47.1853	0.260804	0.260654	0.000940189	3	1.51351e-05	2.45064e-07
2	1	0	1	0	47.2853	0.265805	0.265633	0.000931025	3	1.52289e-05	2.47311e-07
2	1	0	1	0	47.3853	0.270805	0.270666	0.00092104	3	1.53217e-05	2.49295e-07
2	1	0	1	0	47.4853	0.275805	0.275701	0.000914198	3	1.54137e-05	2.52045e-07
2	1	0	1	0	47.5853	0.280805	0.280674	0.000907663	3	1.5505e-05	2.54757e-07
2	1	0	1	0	47.6853	0.285805	0.285666	0.000900843	3	1.55957e-05	2.5734e-07
2	1	0	1	0	47.7853	0.290806	0.290634	0.000894567	3	1.56857e-05	2.59991e-07
2	1	0	1	0	47.8853	0.295806	0.295652	0.000891369	3	1.57753e-05	2.63535e-07
2	0	0	1	0	47.9749	0.299706	0.29953	0.000803277	3	1.58546e-05	2.40606e-07
2	0	0	1	0	48.0749	0.294706	0.294516	0.000753156	3	1.59316e-05	2.21817e-07
2	0	0	1	0	48.1749	0.289706	0.289515	0.000727049	3	1.60053e-05	2.10492e-07
2	0	0	1	0	48.2749	0.284705	0.284479	0.000707488	3	1.60768e-05	2.01265e-07
2	0	0	1	0	48.3749	0.279705	0.279499	0.000691459	3	1.61464e-05	1.93263e-07
2	0	0	1	0	48.4749	0.274705	0.274517	0.000676652	3	1.62144e-05	1.85752e-07
2	0	0	1	0	48.5749	0.269705	0.26952	0.000659906	3	1.6281e-05	1.77858e-07
2	0	0	1	0	48.6749	0.264705	0.264484	0.000649324	3	1.63463e-05	1.71736e-07
2	0	0	1	0	48.7749	0.259704	0.259531	0.000637816	3	1.64105e-05	1.65533e-07
2	0	0	1	0	48.8749	0.254704	0.254479	0.000627071	3	1.64735e-05	1.59577e-07
2	0	0	1	0	48.9749	0.249704	0.249497	0.000616917	3	1.65355e-05	1.53919e-07
2	0	0	1	0	49.0749	0.244704	0.244522	0.000608794	3	1.65965e-05	1.48863e-07
2	0	0	1	0	49.1749	0.239703	0.239474	0.00059839	3	1.66566e-05	1.43299e-07
2	0	0	1	0	49.2749	0.234703	0.234488	0.000590081	3	1.67157e-05	1.38367e-07
2	0	0	1	0	49.3749	0.229703	0.229546	0.000579378	3	1.6774e-05	1.32994e-07
2	0	0	1	0	49.4749	0.224703	0.22455	0.000571821	3	1.68314e-05	1.28402e-07
2	0	0	1	0	49.5749	0.219703	0.219505	0.000565141	3	1.6888e-05	1.24051e-07
2	0	0	1	0	49.6749	0.214702	0.214538	0.000556051	3	1.69438e-05	1.19294e-07
2	0	0	1	0	49.7749	0.209702	0.20951	0.000547858	3	1.69987e-05	1.14782e-07
2	0	0	1	0	49.8749	0.204702	0.204463	0.000539062	3	1.70528e-05	1.10218e-07
2	0	0	1	0	49.9749	0.199702	0.199526	0.000530339	3	1.7106e-05	1.05816e-07
2	0	0	1	0	50.0749	0.194702	0.194462	0.00052365	3	1.71585e-05	1.0183e-07
2	0	0	1	0	50.1749	0.189701	0.189543	0.000514343	3	1.721e-05	9.74899e-08
2	0	0	1	0	50.2749	0.184701	0.184499	0.000506018	3	1.72608e-05	9.33595e-08
2	0	0	1	0	50.3749	0.179701	0.179512	0.000497193	3	1.73107e-05	8.92519e-08
2	0	0	1	0	50.4749	0.174701	0.174517	0.000487661	3	1.73597e-05	8.51054e-08
2	0	0	1	0	50.5749	0.169701	0.169565	0.000478552	3	1.74078e-05	8.11455e-08
2	0	0	1	0	50.6749	0.1647	0.164487	0.000468807	3	1.74549e-05	7.71124e-08
2	0	0	1	0	50.7749	0.1597	0.159559	0.000458247	3	1.75011e-05	7.31175e-08
2	0	0	1	0	50.8749	0.1547	0.154549	0.000448799	3	1.75463e-05	6.93614e-08
2	0	0	1	0	50.9749	0.1497	0.149493	0.000438651	3	1.75903e-05	6.55753e-08
2	0	0	0	0	51.0751	0.1447	0.144515	0.000424854	3	1.76334e-05	6.13977e-08
2	0	0	0	0	51.1751	0.139699	0.139496	0.000410613	3	1.7675e-05	5.7279e-08
2	0	0	0	0	51.2751	0.134699	0.134478	0.000397314	3	1.77154e-05	5.34298e-08
2	0	0	0	0	51.3751	0.129699	0.129546	0.000382709	3	1.77541e-05	4.95784e-08
2	0	0	0	0	51.4751	0.124699	0.124465	0.000363581	3	1.77912e-05	4.5253e-08
2	0	0	0	0	51.5751	0.119699	0.11954	0.000343357	3	1.78264e-05	4.10451e-08
2	0	0	0	0	51.6751	0.114698	0.114546	0.00031896	3	1.78592e-05	3.65357e-08
2	0	0	0	0	51.7751	0.109698	0.109495	0.000290419	3	1.78894e-05	3.17993e-08
2	0	0	0	0	51.8751	0.104698	0.104547	0.000255122	3	1.79165e-05	2.66723e-08
2	0	0	0	0	51.9751	0.0996979	0.0995592	0.000214038	3	1.79397e-05	2.13094e-08
2	0	0	0	0	52.0751	0.0946977	0.0945512	0.00016357	3	1.79585e-05	1.54658e-08
2	0	0	0	0	52.1751	0.0896975	0.0895718	0.000102578	3	1.79716e-05	9.18812e-09
2	0	0	0	0	52.2751	0.0846973	0.0845288	2.94353e-05	3	1.79781e-05	2.48813e-09
2	0	0	0	0	52.3751	0.0796971	0.0795271	-6.02552e-05	3	1.79764e-05	-4.79192e-09
2	0	0	0	0	52.4751	0.0746969	0.074552	-0.000166267	3	1.79649e-05	-1.23955e-08
2	0	0	0	0	52.5751	0.0696967	0.0695609	-0.000292621	3	1.79417e-05	-2.0355e-08
2	0	0	0	0	52.6751	0.0646964	0.0645751	-0.000438797	3	1.7905e-05	-2.83354e-08
2	0	0	0	0	52.7751	0.0596963	0.0596265	-0.000599859	3	1.78529e-05	-3.57675e-08
2	0	0	0	0	52.8751	0.0546961	0.0545835	-0.000776105	3	1.77839e-05	-4.23625e-08
2	0	0	0	0	52.9751	0.0496959	0.0494991	-0.000958658	3	1.7697e-05	-4.74527e-08
2	0	0	0	0	53.0751	0.0446957	0.0445197	-0.00113668	3	1.75919e-05	-5.06045e-08
2	0	0	0	0	53.1751	0.0396955	0.0395795	-0.00129803	3	1.74698e-05	-5.13754e-08
2	0	0	0	0	53.2751	0.0346953	0.0345503	-0.00143697	3	1.73325e-05	-4.96477e-08
2	0	0	0	0	53.3751	0.0296951	0.0295507	-0.00153924	3	1.71831e-05	-4.54856e-08
2	0	0	0	0	53.4751	0.0246949	0.0245692	-0.00160674	3	1.70253e-05	-3.94763e-08
2	0	0	0	0	53.5751	0.0196946	0.0195813	-0.00163352	3	1.68628e-05	-3.19864e-08
2	0	0	0	0	53.6751	0.0146944	0.0145108	-0.00162481	3	1.66994e-05	-2.35773e-08
2	0	0	0	0	53.7751	0.00969425	0.00952818	-0.00159235	3	1.6538e-05	-1.51722e-08
2	0	0	0	0	53.8751	0.00469405	0.00452969	-0.00154055	3	1.6381e-05	-6.97821e-09
2	0	0	0	0	53.9751	-0.000306156	-0.000485757	-0.00147695	3	1.62299e-05	7.17438e-10
2	0	0	0	0	54.0751	-0.00530636	-0.00552241	-0.00140662	3	1.60854e-05	7.76794e-09
2	0	0	0	0	54.1751	-0.0103066	-0.0105813	-0.00133657	3	1.5948e-05	1.41427e-08
2	0	0	0	0	54.2751	-0.0153068	-0.0155607	-0.00126817	3	1.58177e-05	1.97337e-08
2	0	0	0	0	54.3751	-0.020307	-0.0205009	-0.00120091	3	1.56941e-05	2.46198e-08
2	0	0	0	0	54.4751	-0.0253072	-0.0254803	-0.00113993	3	1.55768e-05	2.90458e-08
2	0	0	0	0	54.5751	-0.0303074	-0.0304724	-0.00108474	3	1.54654e-05	3.30547e-08
2	0	0	0	0	54.6751	-0.0353076	-0.0354741	-0.00103415	3	1.53592e-05	3.66856e-08
2	0	0	0	0	54.7751	-0.0403078	-0.0404514	-0.000987883	3	1.5258e-05	3.99613e-08
2	0	0	0	0	54.8751	-0.045308	-0.0454382	-0.000944036	3	1.51611e-05	4.28953e-08
2	0	0	0	0	54.9751	-0.0503082	-0.0504113	-0.000908079	3	1.50683e-05	4.57774e-08
2	0	0	0	0	55.0751	-0.0553084	-0.0555317	-0.000872638	3	1.49791e-05	4.84591e-08
2	0	0	0	0	55.1751	-0.0603086	-0.0605397	-0.000841477	3	1.48932e-05	5.09428e-08
2	0	0	0	0	55.2751	-0.0653088	-0.0655138	-0.00081185	3	1.48104e-05	5.31874e-08
2	0	0	0	0	55.3751	-0.070309	-0.0704625	-0.000785751	3	1.47303e-05	5.5366e-08
2	0	0	0	0	55.4751	-0.0753092	-0.0754642	-0.000760092	3	1.46529e-05	5.73597e-08
2	0	0	0	0	55.5751	-0.0803094	-0.0804764	-0.000737143	3	1.45778e-05	5.93227e-08
2	0	0	0	0	55.6751	-0.0853096	-0.0854993	-0.000716696	3	1.45049e-05	6.1277e-08
2	0	0	0	0	55.7751	-0.0903098	-0.0905073	-0.000696511	3	1.4434e-05	6.30393e-08
2	0	0	0	0	55.8751	-0.09531	-0.0954772	-0.000678289	3	1.4365e-05	6.47611e-08
2	0	0	1	0	55.9753	-0.10031	-0.100478	-0.000660669	3	1.42976e-05	6.63826e-08
2	0	0	1	0	56.0753	-0.10531	-0.105469	-0.000646118	3	1.4232e-05	6.81453e-08
2	0	0	1	0	56.1753	-0.110311	-0.11052	-0.000630794	3	1.4168e-05	6.97156e-08
2	0	0	1	0	56.2753	-0.115311	-0.115462	-0.00061741	3	1.41053e-05	7.12872e-08
2	0	0	1	0	56.3753	-0.120311	-0.120423	-0.000604111	3	1.4044e-05	7.27488e-08
2	0	0	1	0	56.4753	-0.125311	-0.125476	-0.000591861	3	1.39839e-05	7.42641e-08
2	0	0	1	0	56.5753	-0.130311	-0.13041	-0.000581024	3	1.3925e-05	7.57716e-08
2	0	0	1	0	56.6753	-0.135312	-0.135424	-0.000569248	3	1.38673e-05	7.70896e-08
2	0	0	1	0	56.7753	-0.140312	-0.1405	-0.000558708	3	1.38107e-05	7.84982e-08
2	0	0	1	0	56.8753	-0.145312	-0.145464	-0.000546908	3	1.37552e-05	7.95555e-08
2	0	0	1	0	56.9753	-0.150312	-0.150452	-0.0005365	3	1.37006e-05	8.07176e-08
2	0	0	1	0	57.0753	-0.155312	-0.155505	-0.000529117	3	1.36471e-05	8.22801e-08
2	0	0	1	0	57.1753	-0.160313	-0.160497	-0.000520749	3	1.35944e-05	8.35786e-08
2	0	0	1	0	57.2753	-0.165313	-0.165499	-0.000510563	3	1.35426e-05	8.44978e-08
2	0	0	1	0	57.3753	-0.170313	-0.170455	-0.000501978	3	1.34916e-05	8.55644e-08
2	0	0	1	0	57.4753	-0.175313	-0.175413	-0.000497225	3	1.34413e-05	8.72195e-08
2	0	0	1	0	57.5753	-0.180313	-0.180447	-0.000490523	3	1.33917e-05	8.85135e-08
2	0	0	1	0	57.6753	-0.185314	-0.185431	-0.000482957	3	1.33428e-05	8.95552e-08
2	0	0	1	0	57.7753	-0.190314	-0.19046	-0.000476849	3	1.32945e-05	9.08207e-08
2	0	0	1	0	57.8753	-0.195314	-0.195476	-0.000471285	3	1.32468e-05	9.21247e-08
2	1	0	1	1	57.9692	-0.199989	-0.200196	-0.000468685	3	1.32024e-05	9.3829e-08
2	1	0	0	1	58.0647	-0.195214	-0.195306	-0.00034455	3	1.31684e-05	6.72926e-08
2	1	0	0	1	58.1647	-0.190214	-0.190331	-0.000325646	3	1.31354e-05	6.19804e-08
2	1	0	0	1	58.2647	-0.185214	-0.185346	-0.000309722	3	1.3104e-05	5.74057e-08
2	1	0	0	1	58.3647	-0.180213	-0.18029	-0.000296913	3	1.30739e-05	5.35306e-08
2	1	0	0	1	58.4647	-0.175213	-0.175336	-0.000287495	3	1.3045e-05	5.04083e-08
2	1	0	0	1	58.5647	-0.170213	-0.170348	-0.000276404	3	1.30171e-05	4.7085e-08
2	1	0	0	1	58.6647	-0.165213	-0.165362	-0.00026783	3	1.29902e-05	4.42888e-08
2	1	0	0	1	58.7647	-0.160213	-0.160323	-0.000260035	3	1.29642e-05	4.16895e-08
2	1	0	0	1	58.8647	-0.155212	-0.155345	-0.000250623	3	1.2939e-05	3.8933e-08
2	1	0	0	1	58.9647	-0.150212	-0.150326	-0.000243874	3	1.29146e-05	3.66606e-08
2	1	0	0	1	59.0647	-0.145212	-0.145341	-0.000236402	3	1.28909e-05	3.4359e-08
2	1	0	0	1	59.1647	-0.140212	-0.140354	-0.000228333	3	1.28679e-05	3.20476e-08
2	1	0	0	1	59.2647	-0.135212	-0.135321	-0.000221105	3	1.28456e-05	2.99201e-08
2	1	0	0	1	59.3647	-0.130211	-0.130346	-0.000218685	3	1.2824e-05	2.85047e-08
2	1	0	0	1	59.4647	-0.125211	-0.125304	-0.000210166	3	1.28029e-05	2.63346e-08
2	1	0	0	1	59.5647	-0.120211	-0.120363	-0.000204377	3	1.27825e-05	2.45994e-08
2	1	0	0	1	59.6647	-0.115211	-0.115347	-0.000198755	3	1.27627e-05	2.29258e-08
2	1	0	0	1	59.7647	-0.110211	-0.110331	-0.000194305	3	1.27434e-05	2.14378e-08
2	1	0	0	1	59.8647	-0.10521	-0.105289	-0.000188114	3	1.27246e-05	1.98063e-08
2	1	0	0	1	59.9647	-0.10021	-0.100302	-0.000184451	3	1.27063e-05	1.85007e-08
2	1	0	1	1	60.0649	-0.09521	-0.0953415	-0.000178694	3	1.26885e-05	1.70369e-08
2	1	0	1	1	60.1649	-0.0902098	-0.0903324	-0.000174606	3	1.26712e-05	1.57726e-08
2	1	0	1	1	60.2649	-0.0852096	-0.085336	-0.000170049	3	1.26543e-05	1.45113e-08
2	1	0	1	1	60.3649	-0.0802094	-0.0803206	-0.000165078	3	1.26379e-05	1.32592e-08
2	1	0	1	1	60.4649	-0.0752092	-0.0753549	-0.000161072	3	1.26219e-05	1.21376e-08
2	1	0	1	1	60.5649	-0.070209	-0.0703904	-0.000156499	3	1.26063e-05	1.1016e-08
2	1	0	1	1	60.6649	-0.0652088	-0.0653294	-0.000152436	3	1.25912e-05	9.95857e-09
2	1	0	0	1	60.7554	-0.0606836	-0.0608196	-0.00016129	3	1.2578e-05	9.80956e-09