File: AutoAnalysis Examples/EC/C003A-20ppb-B_C01.mpt
EC-Lab ASCII FILE
Nb header lines : 59

Cyclic Voltammetry

Run on channel : 1 (SN 22398)
User :
CE vs. WE compliance from -10 V to 10 V
Electrode connection : standard
Ewe ctrl range : min = -1.00 V, max = 1.00 V
Safety Limits :
	Ewe min = -2.00 V
	Ewe max = 2.00 V
	|I| = 50.000 mA
	for t > 10 ms
Acquisition started on : 11/21/2018 11:05:29
Technique started on : 11/21/2018 11:05:29
Saved on :
	File : C003A-20ppb-B_C01.mpr
	Directory : \\ECCOMPUTER\Users\Lab User\Google Drive\Electrochemical Data\EC-Lab\Data\FREDsense\Tim\2018.11.21 - EC comparison to High Throughput\
	Host : 172.16.1.30
Device : SP-50 (SN 0301030103010301)
Address : USB
EC-Lab for windows v11.02 (software)
Internet server v11.02 (firmware)
Command interpretor v11.02 (firmware)
Electrode material : Au/Pd
Initial state :
Electrolyte : NaCl (0.2M)
Comments : Fe(CN)63-/Fe(CN)64- 5.10-3 M
Reference electrode : SCE Saturated Calomel Electrode (0.241 V)
Electrode surface area : 0.001 cm²
Characteristic mass : 0.001 g
Equivalent Weight : 0.000 g/eq.
Density : 0.000 g/cm3
Cycle Definition : Charge/Discharge alternance
Ei (V)              -0.100
vs.                 Ref
dE/dt               50.000
dE/dt unit          mV/s
E1 (V)              0.300
vs.                 Ref
Step percent        50
N                   10
E range min (V)     -1.000
E range max (V)     1.000
I Range             Auto
I Range min         Unset
I Range max         Unset
I Range init        Unset
Bandwidth           5
E2 (V)              -0.200
vs.                 Ref
nc cycles           2
Reverse Scan        1
Ef (V)              0.000
vs.                 Eoc

mode	ox/red	error	control changes	counter inc.	time/s	control/V	Ewe/V	<I>/mA	cycle number	(Q-Qo)/C	P/W
2	1	0	1	0	0.000000000000000E+000	-0.0984851	-0.0985258	-0.000118201	1	0.0000000E+000	1.16459e-08
2	1	0	0	0	0.111	-0.0929349	-0.0932288	-2.8978e-05	1	-3.57454e-09	2.70159e-09
2	1	0	1	0	0.2265	-0.0871597	-0.0873988	1.44845e-05	1	-1.85155e-09	-1.26593e-09
2	1	0	1	0	0.3265	-0.0821595	-0.0824204	2.23785e-05	1	4.17817e-10	-1.84445e-09
2	1	0	1	0	0.4265	-0.0771593	-0.0773997	2.83013e-05	1	3.39871e-09	-2.19051e-09
2	1	0	1	0	0.5265	-0.0721591	-0.0724383	3.30476e-05	1	6.83988e-09	-2.39391e-09
2	1	0	1	0	0.6265	-0.0671589	-0.06739	3.70449e-05	1	1.06651e-08	-2.49646e-09
2	1	0	1	0	0.7265	-0.0621587	-0.0623936	3.95285e-05	1	1.48298e-08	-2.46632e-09
2	1	0	1	0	0.8265	-0.0571585	-0.0574322	4.11624e-05	1	1.92384e-08	-2.36405e-09
2	1	0	1	0	0.9265	-0.0521583	-0.0523585	4.61065e-05	1	2.38759e-08	-2.41407e-09
2	1	0	1	0	1.0265	-0.0471581	-0.0473897	4.68025e-05	1	2.87011e-08	-2.21795e-09
2	1	0	1	0	1.1265	-0.0421579	-0.0423838	4.73271e-05	1	3.37344e-08	-2.0059e-09
2	1	0	1	0	1.2265	-0.0371577	-0.0374224	5.06656e-05	1	3.90102e-08	-1.89603e-09
2	1	0	1	0	1.3265	-0.0321575	-0.0323889	5.60831e-05	1	4.47606e-08	-1.81647e-09
2	1	0	1	0	1.4265	-0.0271573	-0.0274318	5.62315e-05	1	5.06815e-08	-1.54253e-09
2	1	0	1	0	1.5265	-0.022157	-0.0223654	5.74291e-05	1	5.66484e-08	-1.28443e-09
2	1	0	1	0	1.6265	-0.0171568	-0.0173839	6.2829e-05	1	6.30545e-08	-1.09221e-09
2	1	0	1	0	1.7265	-0.0121566	-0.0124045	6.97851e-05	1	6.99834e-08	-8.65648e-10
2	1	0	1	0	1.8265	-0.00715643	-0.00741978	7.72198e-05	1	7.75728e-08	-5.72954e-10
2	1	0	1	0	1.9265	-0.00215623	-0.00239373	8.69809e-05	1	8.60568e-08	-2.08209e-10
2	1	0	1	0	2.0265	0.00284397	0.00264928	9.96372e-05	1	9.57016e-08	2.63967e-10
2	1	0	1	0	2.1265	0.00784417	0.00758628	0.000117647	1	1.06862e-07	8.92506e-10
2	1	0	1	0	2.2265	0.0128444	0.0125742	0.000141767	1	1.20091e-07	1.78261e-09
2	1	0	1	0	2.3265	0.0178446	0.0176447	0.000172376	1	1.35998e-07	3.04152e-09
2	1	0	1	0	2.4265	0.0228448	0.0226846	0.000211155	1	1.55403e-07	4.78996e-09
2	1	0	1	0	2.5265	0.027845	0.0276534	0.000260233	1	1.79306e-07	7.19631e-09
2	1	0	1	0	2.6265	0.0328452	0.0326052	0.000325805	1	2.08755e-07	1.06229e-08
2	1	0	1	0	2.7265	0.0378454	0.0376238	0.000400112	1	2.45142e-07	1.50537e-08
2	1	0	1	0	2.8265	0.0428456	0.0426446	0.000488431	1	2.89756e-07	2.0829e-08
2	1	0	1	0	2.9265	0.0478458	0.0475752	0.000589572	1	3.43889e-07	2.8049e-08
2	1	0	1	0	3.0265	0.052846	0.0525917	0.000702446	1	4.0872e-07	3.69429e-08
2	1	0	1	0	3.1265	0.0578462	0.0576602	0.00081713	1	4.84905e-07	4.71158e-08
2	1	0	1	0	3.2265	0.0628464	0.0626725	0.000931168	1	5.72682e-07	5.83586e-08
2	1	0	1	0	3.3265	0.0678466	0.0676688	0.00104053	1	6.71678e-07	7.04113e-08
2	1	0	1	0	3.4265	0.0728468	0.0726588	0.00113244	1	7.80734e-07	8.2282e-08
2	1	0	1	0	3.5265	0.077847	0.0776785	0.00120931	1	8.98275e-07	9.39377e-08
2	1	0	1	0	3.6265	0.0828472	0.0826653	0.00126405	1	1.02239e-06	1.04493e-07
2	1	0	1	0	3.7265	0.0878474	0.0876946	0.00129808	1	1.15096e-06	1.13834e-07
2	1	0	1	0	3.8265	0.0928476	0.0926507	0.00131089	1	1.28182e-06	1.21455e-07
2	1	0	1	0	3.9265	0.0978478	0.0976714	0.00130555	1	1.41304e-06	1.27515e-07
2	1	0	1	0	4.0265	0.102848	0.102648	0.00128662	1	1.54303e-06	1.32069e-07
2	1	0	1	0	4.1265	0.107848	0.107669	0.00125992	1	1.67068e-06	1.35655e-07
2	1	0	1	0	4.2265	0.112848	0.112674	0.00122741	1	1.79524e-06	1.38297e-07
2	1	0	1	0	4.3265	0.117849	0.117613	0.00118963	1	1.9163e-06	1.39916e-07
2	1	0	1	0	4.4265	0.122849	0.122677	0.00115171	1	2.03357e-06	1.41288e-07
2	1	0	1	0	4.5265	0.127849	0.127684	0.00111476	1	2.14713e-06	1.42336e-07
2	1	0	1	0	4.6265	0.132849	0.132647	0.00107925	1	2.25709e-06	1.43159e-07
2	1	0	1	0	4.7265	0.137849	0.137633	0.00104732	1	2.36363e-06	1.44145e-07
2	1	0	1	0	4.8265	0.14285	0.142679	0.00101607	1	2.467e-06	1.44972e-07
2	1	0	0	0	4.9267	0.14785	0.147626	0.000986733	1	2.56758e-06	1.45667e-07
2	1	0	0	0	5.0267	0.15285	0.152687	0.000964567	1	2.66526e-06	1.47276e-07
2	1	0	0	0	5.1267	0.15785	0.157678	0.000938497	1	2.76049e-06	1.4798e-07
2	1	0	0	0	5.2267	0.16285	0.162646	0.000916263	1	2.85342e-06	1.49027e-07
2	1	0	0	0	5.3267	0.167851	0.167643	0.00089602	1	2.94429e-06	1.50211e-07
2	1	0	0	0	5.4267	0.172851	0.172676	0.000879013	1	3.03325e-06	1.51785e-07
2	1	0	0	0	5.5267	0.177851	0.177679	0.000862287	1	3.12047e-06	1.5321e-07
2	1	0	0	0	5.6267	0.182851	0.182696	0.000846851	1	3.20613e-06	1.54716e-07
2	1	0	0	0	5.7267	0.187851	0.187626	0.000831621	1	3.29034e-06	1.56034e-07
2	1	0	0	0	5.8267	0.192852	0.192685	0.000820993	1	3.37322e-06	1.58193e-07
2	1	0	0	0	5.9267	0.197852	0.197663	0.000809306	1	3.4549e-06	1.5997e-07
2	1	0	0	0	6.0267	0.202852	0.202691	0.000797023	1	3.53547e-06	1.61549e-07
2	1	0	0	0	6.1267	0.207852	0.207648	0.000789576	1	3.61504e-06	1.63954e-07
2	1	0	0	0	6.2267	0.212852	0.212696	0.000779201	1	3.69371e-06	1.65733e-07
2	1	0	0	0	6.3267	0.217853	0.217686	0.000771786	1	3.77155e-06	1.68007e-07
2	1	0	0	0	6.4267	0.222853	0.222715	0.000764085	1	3.84864e-06	1.70173e-07
2	1	0	0	0	6.5267	0.227853	0.227711	0.000758745	1	3.92504e-06	1.72775e-07
2	1	0	0	0	6.6267	0.232853	0.232691	0.000751676	1	4.00082e-06	1.74908e-07
2	1	0	0	0	6.7267	0.237853	0.237719	0.000746834	1	4.07603e-06	1.77536e-07
2	1	0	0	0	6.8267	0.242854	0.242717	0.000741448	1	4.15073e-06	1.79962e-07
2	1	0	0	0	6.9267	0.247854	0.247762	0.000737894	1	4.22497e-06	1.82822e-07
2	1	0	0	0	7.0267	0.252854	0.252673	0.000733238	1	4.2988e-06	1.85269e-07
2	1	0	0	0	7.1267	0.257854	0.257715	0.000730216	1	4.3723e-06	1.88187e-07
2	1	0	0	0	7.2267	0.262854	0.262695	0.0007259	1	4.44547e-06	1.90691e-07
2	1	0	0	0	7.3267	0.267855	0.267714	0.000725551	1	4.51836e-06	1.9424e-07
2	1	0	0	0	7.4267	0.272855	0.272738	0.00072376	1	4.59102e-06	1.97397e-07
2	1	0	0	0	7.5267	0.277855	0.277726	0.000721101	1	4.66348e-06	2.00268e-07
2	1	0	0	0	7.6267	0.282855	0.282669	0.000720068	1	4.73579e-06	2.03541e-07
2	1	0	0	0	7.7267	0.287855	0.287678	0.000718134	1	4.80798e-06	2.06591e-07
2	1	0	0	0	7.8267	0.292856	0.292644	0.000718595	1	4.88008e-06	2.10292e-07
2	1	0	0	0	7.9267	0.297856	0.297688	0.000716685	1	4.95212e-06	2.13348e-07
2	0	0	1	0	8.0153	0.297706	0.297567	0.00060274	1	5.01119e-06	1.79356e-07
2	0	0	1	0	8.1153	0.292706	0.292523	0.00056035	1	5.06901e-06	1.63915e-07
2	0	0	1	0	8.2153	0.287705	0.28749	0.000532878	1	5.12346e-06	1.53197e-07
2	0	0	1	0	8.3153	0.282705	0.282555	0.00051122	1	5.1754e-06	1.44447e-07
2	0	0	1	0	8.4153	0.277705	0.277486	0.000492858	1	5.22532e-06	1.36761e-07
2	0	0	1	0	8.5153	0.272705	0.272507	0.000475182	1	5.27355e-06	1.2949e-07
2	0	0	1	0	8.6153	0.267705	0.267526	0.000462102	1	5.32032e-06	1.23624e-07
2	0	0	1	0	8.7153	0.262704	0.2625	0.000450113	1	5.3658e-06	1.18155e-07
2	0	0	1	0	8.8153	0.257704	0.257544	0.000438891	1	5.41013e-06	1.13034e-07
2	0	0	1	0	8.9153	0.252704	0.252552	0.000430467	1	5.45338e-06	1.08715e-07
2	0	0	1	0	9.0153	0.247704	0.247502	0.000419846	1	5.49571e-06	1.03912e-07
2	0	0	1	0	9.1153	0.242704	0.242467	0.000410742	1	5.53717e-06	9.95913e-08
2	0	0	1	0	9.2153	0.237703	0.237482	0.000403586	1	5.57778e-06	9.58446e-08
2	0	0	1	0	9.3153	0.232703	0.2325	0.000396051	1	5.61763e-06	9.20817e-08
2	0	0	1	0	9.4153	0.227703	0.227515	0.000388888	1	5.65674e-06	8.84779e-08
2	0	0	1	0	9.5153	0.222703	0.222525	0.000383785	1	5.69517e-06	8.54017e-08
2	0	0	1	0	9.6153	0.217703	0.217454	0.000375681	1	5.73292e-06	8.16934e-08
2	0	0	1	0	9.7153	0.212702	0.212542	0.000368721	1	5.77002e-06	7.83686e-08
2	0	0	1	0	9.8153	0.207702	0.2075	0.000363441	1	5.8065e-06	7.5414e-08
2	0	0	1	0	9.9153	0.202702	0.2025	0.000356839	1	5.84235e-06	7.22599e-08
2	0	0	1	0	10.0153	0.197702	0.197523	0.000351266	1	5.87763e-06	6.9383e-08
2	0	0	1	0	10.1153	0.192702	0.192527	0.000343289	1	5.9123e-06	6.60922e-08
2	0	0	1	0	10.2153	0.187701	0.187452	0.000339139	1	5.94637e-06	6.35723e-08
2	0	0	1	0	10.3153	0.182701	0.182503	0.000333713	1	5.97988e-06	6.09037e-08
2	0	0	1	0	10.4153	0.177701	0.177491	0.000326783	1	6.01278e-06	5.80011e-08
2	0	0	1	0	10.5153	0.172701	0.172498	0.000321198	1	6.04508e-06	5.54059e-08
2	0	0	1	0	10.6153	0.167701	0.167471	0.000314954	1	6.07679e-06	5.27455e-08
2	0	0	1	0	10.7153	0.1627	0.162485	0.000311997	1	6.10796e-06	5.06948e-08
2	0	0	1	0	10.8153	0.1577	0.157513	0.000305466	1	6.1387e-06	4.81149e-08
2	0	0	1	0	10.9153	0.1527	0.152489	0.000292121	1	6.16855e-06	4.45453e-08
2	0	0	1	0	11.0153	0.1477	0.147496	0.000286804	1	6.19745e-06	4.23024e-08
2	0	0	0	0	11.1155	0.1427	0.142453	0.000279541	1	6.22566e-06	3.98214e-08
2	0	0	0	0	11.2155	0.137699	0.137485	0.000272241	1	6.25302e-06	3.7429e-08
2	0	0	0	0	11.3155	0.132699	0.132471	0.000261402	1	6.27954e-06	3.46281e-08
2	0	0	0	0	11.4155	0.127699	0.127454	0.000247359	1	6.30487e-06	3.15269e-08
2	0	0	0	0	11.5155	0.122699	0.122486	0.000235392	1	6.32885e-06	2.88323e-08
2	0	0	0	0	11.6155	0.117699	0.117498	0.000220026	1	6.35136e-06	2.58527e-08
2	0	0	0	0	11.7155	0.112698	0.112507	0.000199396	1	6.3722e-06	2.24335e-08
2	0	0	0	0	11.8155	0.107698	0.107521	0.000178512	1	6.39105e-06	1.91937e-08
2	0	0	0	0	11.9155	0.102698	0.102518	0.000152283	1	6.40753e-06	1.56117e-08
2	0	0	0	0	12.0155	0.0976978	0.097513	0.000122296	1	6.42116e-06	1.19255e-08
2	0	0	0	0	12.1155	0.0926976	0.092488	8.44585e-05	1	6.43135e-06	7.8114e-09
2	0	0	0	0	12.2155	0.0876974	0.0874895	3.7702e-05	1	6.43732e-06	3.29853e-09
2	0	0	0	0	12.3155	0.0826972	0.0824932	-1.7731e-05	1	6.43819e-06	-1.46269e-09
2	0	0	0	0	12.4155	0.077697	0.0775413	-8.44548e-05	1	6.43298e-06	-6.54874e-09
2	0	0	0	0	12.5155	0.0726968	0.0724135	-0.000163183	1	6.4205e-06	-1.18167e-08
2	0	0	0	0	12.6155	0.0676966	0.067486	-0.000252996	1	6.39964e-06	-1.70737e-08
2	0	0	0	0	12.7155	0.0626964	0.0625066	-0.000353473	1	6.36923e-06	-2.20944e-08
2	0	0	0	0	12.8155	0.0576962	0.0574827	-0.000464075	1	6.32832e-06	-2.66763e-08
2	0	0	0	0	12.9155	0.052696	0.0525447	-0.000573913	1	6.27633e-06	-3.0156e-08
2	0	0	0	0	13.0155	0.0476958	0.0474995	-0.000686646	1	6.21307e-06	-3.26153e-08
2	0	0	0	0	13.1155	0.0426956	0.042448	-0.000786488	1	6.13919e-06	-3.33849e-08
2	0	0	0	0	13.2155	0.0376954	0.0374888	-0.000873232	1	6.05595e-06	-3.27364e-08
2	0	0	0	0	13.3155	0.0326952	0.0325422	-0.000938271	1	5.96516e-06	-3.05334e-08
2	0	0	0	0	13.4155	0.027695	0.0274515	-0.000977679	1	5.8691e-06	-2.68388e-08
2	0	0	0	0	13.5155	0.0226948	0.0224721	-0.000994008	1	5.77019e-06	-2.23374e-08
2	0	0	0	0	13.6155	0.0176946	0.0174789	-0.000988516	1	5.67076e-06	-1.72782e-08
2	0	0	0	0	13.7155	0.0126944	0.012473	-0.000968937	1	5.57274e-06	-1.20856e-08
2	0	0	0	0	13.8155	0.00769417	0.00750209	-0.000931608	1	5.4776e-06	-6.98901e-09
2	0	0	0	0	13.9155	0.00269396	0.0024771	-0.000890668	1	5.38632e-06	-2.20628e-09
2	0	0	0	0	14.0155	-0.00230624	-0.00258605	-0.000846602	1	5.29936e-06	2.18935e-09
2	0	0	0	0	14.1155	-0.00730644	-0.00755486	-0.000800425	1	5.21697e-06	6.04709e-09
2	0	0	0	0	14.2155	-0.0123066	-0.0125873	-0.000756591	1	5.13907e-06	9.52342e-09
2	0	0	0	0	14.3155	-0.0173068	-0.0175179	-0.000714122	1	5.06541e-06	1.25099e-08
2	0	0	0	0	14.4155	-0.0223071	-0.0225927	-0.000676482	1	4.99571e-06	1.52836e-08
2	0	0	0	0	14.5155	-0.0273073	-0.0275711	-0.00064327	1	4.92963e-06	1.77356e-08
2	0	0	0	0	14.6155	-0.0323075	-0.0325547	-0.000612659	1	4.86682e-06	1.99449e-08
2	0	0	0	0	14.7155	-0.0373077	-0.0375712	-0.000583161	1	4.80698e-06	2.19101e-08
2	0	0	0	0	14.8155	-0.0423079	-0.0425824	-0.000556908	1	4.74977e-06	2.37145e-08
2	0	0	0	0	14.9155	-0.0473081	-0.047511	-0.000535621	1	4.69497e-06	2.54478e-08
2	0	0	0	0	15.0155	-0.0523083	-0.0525572	-0.000516097	1	4.64234e-06	2.71246e-08
2	0	0	0	0	15.1155	-0.0573085	-0.0575567	-0.000496398	1	4.59164e-06	2.8571e-08
2	0	0	0	0	15.2155	-0.0623087	-0.0625266	-0.000479213	1	4.54273e-06	2.99635e-08
2	0	0	0	0	15.3155	-0.0673089	-0.0675388	-0.000464101	1	4.49543e-06	3.13448e-08
2	0	0	0	0	15.4155	-0.0723091	-0.0725734	-0.000449581	1	4.44961e-06	3.26276e-08
2	0	0	0	0	15.5155	-0.0773093	-0.0775634	-0.000437133	1	4.40514e-06	3.39056e-08
2	0	0	0	0	15.6155	-0.0823095	-0.0825258	-0.000424673	1	4.36192e-06	3.50465e-08
2	0	0	0	0	15.7155	-0.0873097	-0.0875434	-0.000413321	1	4.31984e-06	3.61835e-08
2	0	0	0	0	15.8155	-0.0923099	-0.092508	-0.000404437	1	4.27883e-06	3.74137e-08
2	0	0	0	0	15.9155	-0.0973101	-0.0975298	-0.000393113	1	4.23879e-06	3.83402e-08
2	0	0	1	0	16.0157	-0.10231	-0.102472	-0.000384834	1	4.1996e-06	3.94347e-08
2	0	0	1	0	16.1157	-0.107311	-0.107585	-0.000377359	1	4.16135e-06	4.05981e-08
2	0	0	1	0	16.2157	-0.112311	-0.112549	-0.000368808	1	4.12387e-06	4.15088e-08
2	0	0	1	0	16.3157	-0.117311	-0.117509	-0.000362159	1	4.08714e-06	4.25569e-08
2	0	0	1	0	16.4157	-0.122311	-0.12252	-0.000355192	1	4.05111e-06	4.35182e-08
2	0	0	1	0	16.5157	-0.127311	-0.1275	-0.000349303	1	4.01573e-06	4.4536e-08
2	0	0	1	0	16.6157	-0.132312	-0.132533	-0.000342308	1	3.98094e-06	4.53671e-08
2	0	0	1	0	16.7157	-0.137312	-0.137499	-0.000337844	1	3.94673e-06	4.64531e-08
2	0	0	1	0	16.8157	-0.142312	-0.142499	-0.000331759	1	3.91307e-06	4.72754e-08
2	0	0	1	0	16.9157	-0.147312	-0.147591	-0.000327824	1	3.8799e-06	4.83838e-08
2	0	0	1	0	17.0157	-0.152312	-0.152495	-0.000322675	1	3.84721e-06	4.92063e-08
2	0	0	1	0	17.1157	-0.157313	-0.157548	-0.00031802	1	3.81492e-06	5.01033e-08
2	0	0	1	0	17.2157	-0.162313	-0.162555	-0.000314869	1	3.78305e-06	5.11834e-08
2	0	0	1	0	17.3157	-0.167313	-0.167613	-0.000313145	1	3.75157e-06	5.2487e-08
2	0	0	1	0	17.4157	-0.172313	-0.172517	-0.000308107	1	3.72042e-06	5.31536e-08
2	0	0	1	0	17.5157	-0.177313	-0.177559	-0.000304952	1	3.68959e-06	5.41469e-08
2	0	0	1	0	17.6157	-0.182314	-0.182551	-0.000302755	1	3.65903e-06	5.52681e-08
2	0	0	1	0	17.7157	-0.187314	-0.187502	-0.000299434	1	3.62874e-06	5.61443e-08
2	0	0	1	0	17.8157	-0.192314	-0.192612	-0.000298042	1	3.59867e-06	5.74066e-08
2	0	0	1	0	17.9157	-0.197314	-0.197563	-0.000296044	1	3.56879e-06	5.84875e-08
2	1	0	0	1	18.0051	-0.198214	-0.198434	-0.00019486	1	3.54564e-06	3.86667e-08
2	1	0	0	1	18.1051	-0.193214	-0.193439	-0.000171782	1	3.52773e-06	3.32294e-08
2	1	0	0	1	18.2051	-0.188214	-0.18841	-0.00015605	1	3.5116e-06	2.94015e-08
2	1	0	0	1	18.3051	-0.183214	-0.183478	-0.000147031	1	3.49671e-06	2.6977e-08
2	1	0	0	1	18.4051	-0.178213	-0.178397	-0.000136062	1	3.48283e-06	2.42731e-08
2	1	0	0	1	18.5051	-0.173213	-0.173409	-0.000129848	1	3.4698e-06	2.25168e-08
2	1	0	0	1	18.6051	-0.168213	-0.168427	-0.000121645	1	3.45752e-06	2.04882e-08
2	1	0	0	1	18.7051	-0.163213	-0.163402	-0.000115079	1	3.44593e-06	1.88041e-08
2	1	0	0	1	18.8051	-0.158213	-0.158422	-0.000109826	1	3.43495e-06	1.73988e-08
2	1	0	0	1	18.9051	-0.153212	-0.153376	-0.000103938	1	3.42454e-06	1.59416e-08
2	1	0	0	1	19.0051	-0.148212	-0.148378	-9.83069e-05	1	3.41463e-06	1.45865e-08
2	1	0	0	1	19.1051	-0.143212	-0.143383	-9.414e-05	1	3.4052e-06	1.34981e-08
2	1	0	0	1	19.2051	-0.138212	-0.138383	-8.98388e-05	1	3.39623e-06	1.24321e-08
2	1	0	0	1	19.3051	-0.133212	-0.133396	-8.57584e-05	1	3.3877e-06	1.14398e-08
2	1	0	0	1	19.4051	-0.128211	-0.128398	-8.18706e-05	1	3.37956e-06	1.05121e-08
2	1	0	0	1	19.5051	-0.123211	-0.123361	-7.83855e-05	1	3.37181e-06	9.6697e-09
2	1	0	0	1	19.6051	-0.118211	-0.118404	-7.45083e-05	1	3.36443e-06	8.82205e-09
2	1	0	0	1	19.7051	-0.113211	-0.113374	-7.11362e-05	1	3.35742e-06	8.06503e-09
2	1	0	0	1	19.8051	-0.108211	-0.108408	-6.70453e-05	1	3.35072e-06	7.26822e-09
2	1	0	0	1	19.9051	-0.10321	-0.103424	-6.4219e-05	1	3.34436e-06	6.64179e-09
2	1	0	1	1	20.0053	-0.0982101	-0.0984309	-6.15942e-05	2	3.33827e-06	6.06277e-09
2	1	0	1	1	20.1053	-0.09321	-0.0933783	-6.0091e-05	2	3.3325e-06	5.61119e-09
2	1	0	1	1	20.2053	-0.0882097	-0.0884095	-5.57068e-05	2	3.32702e-06	4.92501e-09
2	1	0	1	1	20.3053	-0.0832095	-0.08341	-5.31702e-05	2	3.32181e-06	4.43493e-09
2	1	0	1	1	20.4053	-0.0782093	-0.0784147	-5.06213e-05	2	3.31687e-06	3.96945e-09
2	1	0	1	1	20.5053	-0.0732091	-0.0734236	-4.82526e-05	2	3.3122e-06	3.54288e-09
2	1	0	1	1	20.6053	-0.0682089	-0.0684368	-4.58008e-05	2	3.30778e-06	3.13446e-09
2	1	0	1	1	20.7053	-0.0632087	-0.0633927	-4.192e-05	2	3.30362e-06	2.65742e-09
2	1	0	1	1	20.8053	-0.0582085	-0.0583889	-4.01607e-05	2	3.29972e-06	2.34494e-09
2	1	0	1	1	20.9053	-0.0532083	-0.0534286	-3.89949e-05	2	3.29608e-06	2.08344e-09
2	1	0	1	1	21.0053	-0.0482081	-0.0483792	-3.51353e-05	2	3.29275e-06	1.69982e-09
2	1	0	1	1	21.1053	-0.0432079	-0.0433691	-3.08606e-05	2	3.28969e-06	1.3384e-09
2	1	0	1	1	21.2053	-0.0382077	-0.0383674	-2.831e-05	2	3.28694e-06	1.08618e-09
2	1	0	1	1	21.3053	-0.0332075	-0.0334389	-2.52188e-05	2	3.28454e-06	8.43287e-10
2	1	0	1	1	21.4053	-0.0282073	-0.028381	-2.01368e-05	2	3.28251e-06	5.71504e-10
2	1	0	1	1	21.5053	-0.0232071	-0.0234504	-1.63073e-05	2	3.28096e-06	3.82412e-10
2	1	0	1	1	21.6053	-0.0182069	-0.0183883	-1.01249e-05	2	3.27994e-06	1.8618e-10
2	1	0	1	1	21.7053	-0.0132067	-0.0134004	-2.55237e-06	2	3.27957e-06	3.42027e-11
2	1	0	1	1	21.8053	-0.00820648	-0.00842416	5.62605e-06	2	3.28001e-06	-4.73947e-11
2	1	0	1	1	21.9053	-0.00320627	-0.00338432	1.75739e-05	2	3.28145e-06	-5.94759e-11
2	1	0	1	1	22.0053	0.00179393	0.00163325	3.19206e-05	2	3.28424e-06	5.21342e-11
2	1	0	1	1	22.1053	0.00679413	0.00663173	5.18261e-05	2	3.28862e-06	3.43697e-10
2	1	0	1	1	22.2053	0.0117943	0.0115963	7.53528e-05	2	3.29512e-06	8.73813e-10
2	1	0	1	1	22.3053	0.0167945	0.0165916	0.000105401	2	3.30432e-06	1.74877e-09
2	1	0	1	1	22.4053	0.0217947	0.021589	0.000142817	2	3.31694e-06	3.08327e-09
2	1	0	1	1	22.5053	0.0267949	0.0266702	0.000191378	2	3.33385e-06	5.1041e-09
2	1	0	1	1	22.6053	0.0317951	0.0316083	0.000250028	2	3.35606e-06	7.90295e-09
2	1	0	1	1	22.7053	0.0367953	0.0365781	0.000319734	2	3.38472e-06	1.16953e-08
2	1	0	1	1	22.8053	0.0417955	0.0415957	0.000402541	2	3.42104e-06	1.6744e-08
2	1	0	1	1	22.9053	0.0467957	0.0465687	0.000495621	2	3.46616e-06	2.30804e-08
2	1	0	1	1	23.0053	0.0517959	0.0516064	0.000600103	2	3.52115e-06	3.09692e-08
2	1	0	1	1	23.1053	0.0567961	0.0566537	0.000707097	2	3.58674e-06	4.00597e-08
2	1	0	1	1	23.2053	0.0617963	0.0616246	0.000815462	2	3.66317e-06	5.02525e-08
2	1	0	1	1	23.3053	0.0667965	0.0666083	0.00091934	2	3.75027e-06	6.12357e-08
2	1	0	1	1	23.4053	0.0717967	0.0715898	0.00101143	2	3.84721e-06	7.24079e-08
2	1	0	1	1	23.5053	0.0767969	0.0765978	0.00108856	2	3.95266e-06	8.33817e-08
2	1	0	1	1	23.6053	0.0817971	0.0816037	0.00114663	2	4.0649e-06	9.35689e-08
2	1	0	1	1	23.7053	0.0867973	0.0866181	0.00118414	2	4.18191e-06	1.02568e-07
2	1	0	1	1	23.8053	0.0917976	0.0916007	0.00120246	2	4.30174e-06	1.10146e-07
2	1	0	1	1	23.9053	0.0967978	0.0966766	0.00120345	2	4.42245e-06	1.16346e-07
2	1	0	1	1	24.0053	0.101798	0.101626	0.00119003	2	4.5425e-06	1.20938e-07
2	1	0	1	1	24.1053	0.106798	0.106622	0.0011662	2	4.66068e-06	1.24342e-07
2	1	0	1	1	24.2053	0.111798	0.111602	0.00113433	2	4.77609e-06	1.26594e-07
2	1	0	1	1	24.3053	0.116799	0.116631	0.00110114	2	4.88823e-06	1.28427e-07
2	1	0	1	1	24.4053	0.121799	0.121626	0.00106417	2	4.99678e-06	1.29431e-07
2	1	0	1	1	24.5053	0.126799	0.126604	0.00102913	2	5.10168e-06	1.30291e-07
2	1	0	1	1	24.6053	0.131799	0.131626	0.000993757	2	5.203e-06	1.30804e-07
2	1	0	1	1	24.7053	0.136799	0.136607	0.000959588	2	5.30088e-06	1.31087e-07
2	1	0	1	1	24.8053	0.1418	0.141664	0.000928601	2	5.39551e-06	1.31549e-07
2	1	0	1	1	24.9053	0.1468	0.146626	0.000899428	2	5.48711e-06	1.3188e-07
2	1	0	0	1	25.0055	0.1518	0.151612	0.000873038	2	5.57605e-06	1.32363e-07
2	1	0	0	1	25.1055	0.1568	0.15663	0.00084775	2	5.66228e-06	1.32783e-07
2	1	0	0	1	25.2055	0.1618	0.161669	0.000824531	2	5.74612e-06	1.33301e-07
2	1	0	0	1	25.3055	0.166801	0.16665	0.000803786	2	5.82778e-06	1.33951e-07
2	1	0	0	1	25.4055	0.171801	0.171586	0.000784637	2	5.90744e-06	1.34633e-07
2	1	0	0	1	25.5055	0.176801	0.176629	0.000767564	2	5.98526e-06	1.35574e-07
2	1	0	0	1	25.6055	0.181801	0.181638	0.000750911	2	6.0614e-06	1.36394e-07
2	1	0	0	1	25.7055	0.186801	0.186642	0.000736078	2	6.13598e-06	1.37383e-07
2	1	0	0	1	25.8055	0.191802	0.191592	0.000722385	2	6.20913e-06	1.38403e-07
2	1	0	0	1	25.9055	0.196802	0.196644	0.000710238	2	6.28097e-06	1.39664e-07
2	1	0	0	1	26.0055	0.201802	0.201624	0.000696932	2	6.3516e-06	1.40518e-07
2	1	0	0	1	26.1055	0.206802	0.206678	0.000687084	2	6.42115e-06	1.42005e-07
2	1	0	0	1	26.2055	0.211802	0.211626	0.000678506	2	6.48966e-06	1.43589e-07
2	1	0	0	1	26.3055	0.216803	0.21658	0.000670485	2	6.55724e-06	1.45214e-07
2	1	0	0	1	26.4055	0.221803	0.221651	0.000660738	2	6.62396e-06	1.46454e-07
2	1	0	0	1	26.5055	0.226803	0.22659	0.000652957	2	6.68988e-06	1.47953e-07
2	1	0	0	1	26.6055	0.231803	0.231649	0.00064704	2	6.75508e-06	1.49886e-07
2	1	0	0	1	26.7055	0.236803	0.236606	0.000639948	2	6.81961e-06	1.51415e-07
2	1	0	0	1	26.8055	0.241804	0.241629	0.000633161	2	6.88352e-06	1.5299e-07
2	1	0	0	1	26.9055	0.246804	0.246629	0.000629692	2	6.9469e-06	1.553e-07
2	1	0	0	1	27.0055	0.251804	0.251588	0.000624644	2	7.00979e-06	1.57153e-07
2	1	0	0	1	27.1055	0.256804	0.256655	0.000621856	2	7.07228e-06	1.59602e-07
2	1	0	0	1	27.2055	0.261804	0.261685	0.000617362	2	7.13437e-06	1.61554e-07
2	1	0	0	1	27.3055	0.266805	0.266654	0.000613759	2	7.19615e-06	1.63661e-07
2	1	0	0	1	27.4055	0.271805	0.271676	0.00061171	2	7.25769e-06	1.66187e-07
2	1	0	0	1	27.5055	0.276805	0.276632	0.000610546	2	7.31904e-06	1.68896e-07
2	1	0	0	1	27.6055	0.281805	0.281594	0.000609822	2	7.38024e-06	1.71722e-07
2	1	0	0	1	27.7055	0.286805	0.286642	0.00060769	2	7.44136e-06	1.7419e-07
2	1	0	0	1	27.8055	0.291806	0.291656	0.00060908	2	7.50246e-06	1.77642e-07
2	1	0	0	1	27.9055	0.296806	0.296653	0.000609818	2	7.56359e-06	1.80904e-07
2	0	0	0	1	27.9951	0.298706	0.29849	0.000513135	2	7.61602e-06	1.53166e-07
2	0	0	0	1	28.0951	0.293706	0.293474	0.000474367	2	7.66501e-06	1.39214e-07
2	0	0	0	1	28.1951	0.288705	0.288515	0.000452	2	7.71123e-06	1.30408e-07
2	0	0	0	1	28.2951	0.283705	0.283516	0.000436498	2	7.75545e-06	1.23754e-07
2	0	0	0	1	28.3951	0.278705	0.278501	0.000421773	2	7.79807e-06	1.17464e-07
2	0	0	0	1	28.4951	0.273705	0.273507	0.000410198	2	7.83937e-06	1.12192e-07
2	0	0	0	1	28.5951	0.268705	0.268504	0.000396146	2	7.87948e-06	1.06367e-07
2	0	0	0	1	28.6951	0.263704	0.263513	0.000388992	2	7.91856e-06	1.02504e-07
2	0	0	0	1	28.7951	0.258704	0.258527	0.00037989	2	7.95672e-06	9.82117e-08
2	0	0	0	1	28.8951	0.253704	0.253511	0.000370931	2	7.994e-06	9.40352e-08
2	0	0	0	1	28.9951	0.248704	0.248509	0.000363026	2	8.03053e-06	9.02152e-08
2	0	0	0	1	29.0951	0.243704	0.243466	0.000355895	2	8.06634e-06	8.66483e-08
2	0	0	0	1	29.1951	0.238703	0.238465	0.00035069	2	8.10145e-06	8.36272e-08
2	0	0	0	1	29.2951	0.233703	0.23354	0.000343516	2	8.13593e-06	8.02247e-08
2	0	0	0	1	29.3951	0.228703	0.228544	0.000337728	2	8.1698e-06	7.71858e-08
2	0	0	0	1	29.4951	0.223703	0.223503	0.000332008	2	8.20308e-06	7.4205e-08
2	0	0	0	1	29.5951	0.218703	0.218517	0.000325543	2	8.2358e-06	7.11366e-08
2	0	0	0	1	29.6951	0.213702	0.213508	0.00032177	2	8.26797e-06	6.87004e-08
2	0	0	0	1	29.7951	0.208702	0.208485	0.000315145	2	8.2996e-06	6.57028e-08
2	0	0	0	1	29.8951	0.203702	0.20346	0.000309697	2	8.3307e-06	6.30109e-08
2	0	0	0	1	29.9951	0.198702	0.19847	0.000305606	2	8.36128e-06	6.06535e-08
2	0	0	0	1	30.0951	0.193702	0.193442	0.000300344	2	8.39136e-06	5.8099e-08
2	0	0	0	1	30.1951	0.188701	0.188511	0.00029417	2	8.42091e-06	5.54543e-08
2	0	0	0	1	30.2951	0.183701	0.183471	0.000290443	2	8.44996e-06	5.32879e-08
2	0	0	0	1	30.3951	0.178701	0.178464	0.000285227	2	8.47849e-06	5.09028e-08
2	0	0	0	1	30.4951	0.173701	0.173465	0.000278566	2	8.50647e-06	4.83213e-08
2	0	0	0	1	30.5951	0.168701	0.168497	0.000273307	2	8.53393e-06	4.60514e-08
2	0	0	0	1	30.6951	0.1637	0.163528	0.000268784	2	8.56081e-06	4.39537e-08
2	0	0	0	1	30.7951	0.1587	0.158485	0.000263228	2	8.58712e-06	4.17178e-08
2	0	0	0	1	30.8951	0.1537	0.15353	0.00025697	2	8.61281e-06	3.94526e-08
2	0	0	0	1	30.9951	0.1487	0.148498	0.000248255	2	8.63781e-06	3.68652e-08
2	0	0	1	1	31.0953	0.1437	0.143467	0.00024153	2	8.66218e-06	3.46517e-08
2	0	0	1	1	31.1953	0.138699	0.138441	0.000233461	2	8.68571e-06	3.23206e-08
2	0	0	1	1	31.2953	0.133699	0.133476	0.00022415	2	8.70837e-06	2.99186e-08
2	0	0	1	1	31.3953	0.128699	0.128477	0.000214001	2	8.73008e-06	2.74942e-08
2	0	0	1	1	31.4953	0.123699	0.123487	0.00020176	2	8.75066e-06	2.49147e-08
2	0	0	1	1	31.5953	0.118699	0.118446	0.000188202	2	8.76996e-06	2.22919e-08
2	0	0	1	1	31.6953	0.113698	0.113478	0.000170796	2	8.78776e-06	1.93817e-08
2	0	0	1	1	31.7953	0.108698	0.108479	0.000152406	2	8.80376e-06	1.65329e-08
2	0	0	1	1	31.8953	0.103698	0.103507	0.000128569	2	8.81762e-06	1.33078e-08
2	0	0	1	1	31.9953	0.0986978	0.0984682	9.96301e-05	2	8.82887e-06	9.81039e-09
2	0	0	1	1	32.0953	0.0936976	0.0935418	6.5846e-05	2	8.83698e-06	6.15935e-09
2	0	0	1	1	32.1953	0.0886974	0.0885104	2.10008e-05	2	8.84123e-06	1.85879e-09
2	0	0	1	1	32.2953	0.0836972	0.0834589	-2.97213e-05	2	8.84079e-06	-2.48051e-09
2	0	0	1	1	32.3953	0.078697	0.0785156	-9.03705e-05	2	8.83471e-06	-7.09549e-09
2	0	0	1	1	32.4953	0.0736968	0.0734577	-0.000164499	2	8.82189e-06	-1.20837e-08
2	0	0	1	1	32.5953	0.0686966	0.0685144	-0.000249079	2	8.80119e-06	-1.70655e-08
2	0	0	1	1	32.6953	0.0636964	0.0634714	-0.000343716	2	8.77145e-06	-2.18161e-08
2	0	0	1	1	32.7953	0.0586962	0.0585068	-0.000447939	2	8.7316e-06	-2.62074e-08
2	0	0	1	1	32.8953	0.053696	0.0534468	-0.000558443	2	8.68096e-06	-2.9847e-08
2	0	0	1	1	32.9953	0.0486958	0.0484759	-0.000672628	2	8.61915e-06	-3.26062e-08
2	0	0	1	1	33.0953	0.0436956	0.0434679	-0.000775928	2	8.54651e-06	-3.37279e-08
2	0	0	1	1	33.1953	0.0386954	0.0384545	-0.000865522	2	8.46407e-06	-3.32832e-08
2	0	0	1	1	33.2953	0.0336952	0.0334698	-0.000938272	2	8.37339e-06	-3.14038e-08
2	0	0	1	1	33.3953	0.028695	0.0285021	-0.0009885	2	8.27662e-06	-2.81743e-08
2	0	0	1	1	33.4953	0.0236948	0.0234485	-0.00101411	2	8.1761e-06	-2.37794e-08
2	0	0	1	1	33.5953	0.0186946	0.0184797	-0.00101645	2	8.07418e-06	-1.87837e-08
2	0	0	1	1	33.6953	0.0136944	0.0134695	-0.0010011	2	7.97294e-06	-1.34844e-08
2	0	0	1	1	33.7953	0.00869421	0.00849119	-0.000970218	2	7.87399e-06	-8.2383e-09
2	0	0	1	1	33.8953	0.003694	0.00344712	-0.000933607	2	7.77852e-06	-3.21825e-09
2	0	0	1	1	33.9953	-0.0013062	-0.00159059	-0.000889931	2	7.68715e-06	1.41552e-09
2	0	0	1	1	34.0953	-0.0063064	-0.00654562	-0.000845093	2	7.60022e-06	5.53166e-09
2	0	0	1	1	34.1953	-0.0113066	-0.0115282	-0.000800617	2	7.51779e-06	9.22968e-09
2	0	0	1	1	34.2953	-0.0163068	-0.0165839	-0.000757724	2	7.43965e-06	1.2566e-08
2	0	0	1	1	34.3953	-0.021307	-0.0215623	-0.000719773	2	7.36555e-06	1.55199e-08
2	0	0	1	1	34.4953	-0.0263072	-0.0265724	-0.000685475	2	7.29516e-06	1.82147e-08
2	0	0	1	1	34.5953	-0.0313074	-0.0315571	-0.000652929	2	7.22813e-06	2.06046e-08
2	0	0	1	1	34.6953	-0.0363076	-0.0365609	-0.000621936	2	7.16417e-06	2.27385e-08
2	0	0	1	1	34.7953	-0.0413078	-0.0416082	-0.000596056	2	7.10295e-06	2.48008e-08
2	0	0	1	1	34.8953	-0.046308	-0.0465399	-0.000572628	2	7.04422e-06	2.66501e-08
2	0	0	1	1	34.9953	-0.0513082	-0.0515437	-0.00055169	2	6.98774e-06	2.84361e-08
2	0	0	1	1	35.0953	-0.0563084	-0.0565538	-0.000532989	2	6.93325e-06	3.01426e-08
2	0	0	1	1	35.1953	-0.0613086	-0.0615608	-0.000513818	2	6.88062e-06	3.16311e-08
2	0	0	1	1	35.2953	-0.0663089	-0.0666229	-0.000498551	2	6.82968e-06	3.32149e-08
2	0	0	1	1	35.3953	-0.071309	-0.0715355	-0.000484438	2	6.78027e-06	3.46545e-08
2	0	0	1	1	35.4953	-0.0763093	-0.0765435	-0.000469503	2	6.73228e-06	3.59374e-08
2	0	0	1	1	35.5953	-0.0813095	-0.0815579	-0.00045711	2	6.68558e-06	3.72809e-08
2	0	0	1	1	35.6953	-0.0863097	-0.0865373	-0.000445992	2	6.64009e-06	3.8595e-08
2	0	0	1	1	35.7953	-0.0913099	-0.0915602	-0.000435996	2	6.59572e-06	3.99199e-08
2	0	0	1	1	35.8953	-0.0963101	-0.0965089	-0.000426643	2	6.55239e-06	4.11748e-08
2	0	0	0	1	35.9955	-0.10131	-0.101541	-0.000415668	2	6.50995e-06	4.22075e-08
2	0	0	0	1	36.0955	-0.10631	-0.106511	-0.000408157	2	6.46848e-06	4.34733e-08
2	0	0	0	1	36.1955	-0.111311	-0.111515	-0.000400493	2	6.42786e-06	4.4661e-08
2	0	0	0	1	36.2955	-0.116311	-0.116518	-0.000392401	2	6.38802e-06	4.57217e-08
2	0	0	0	1	36.3955	-0.121311	-0.121557	-0.000384792	2	6.34891e-06	4.67743e-08
2	0	0	0	1	36.4955	-0.126311	-0.126551	-0.00037874	2	6.31051e-06	4.79298e-08
2	0	0	0	1	36.5955	-0.131311	-0.131512	-0.000372036	2	6.27276e-06	4.89273e-08
2	0	0	0	1	36.6955	-0.136312	-0.136529	-0.000366112	2	6.23563e-06	4.99847e-08
2	0	0	0	1	36.7955	-0.141312	-0.141494	-0.000360373	2	6.19909e-06	5.09907e-08
2	0	0	0	1	36.8955	-0.146312	-0.146548	-0.000354671	2	6.16308e-06	5.19763e-08
2	0	0	0	1	36.9955	-0.151312	-0.151559	-0.000349501	2	6.12761e-06	5.297e-08
2	0	0	0	1	37.0955	-0.156313	-0.156498	-0.000344481	2	6.09258e-06	5.39106e-08
2	0	0	0	1	37.1955	-0.161313	-0.161567	-0.000341308	2	6.05803e-06	5.5144e-08
2	0	0	0	1	37.2955	-0.166313	-0.166515	-0.000336705	2	6.02389e-06	5.60665e-08
2	0	0	0	1	37.3955	-0.171313	-0.171555	-0.000333561	2	5.99013e-06	5.72241e-08
2	0	0	0	1	37.4955	-0.176313	-0.176558	-0.000328993	2	5.95672e-06	5.80863e-08
2	0	0	0	1	37.5955	-0.181314	-0.181588	-0.000327234	2	5.92362e-06	5.94217e-08
2	0	0	0	1	37.6955	-0.186314	-0.186504	-0.000324229	2	5.89082e-06	6.047e-08
2	0	0	0	1	37.7955	-0.191314	-0.191545	-0.000322328	2	5.85828e-06	6.17403e-08
2	0	0	0	1	37.8955	-0.196314	-0.196574	-0.000319258	2	5.82595e-06	6.27579e-08
2	1	0	1	0	37.9849	-0.199214	-0.199405	-0.000226519	2	5.79867e-06	4.51689e-08
2	1	0	1	0	38.0849	-0.194214	-0.19443	-0.000198124	2	5.77808e-06	3.85214e-08
2	1	0	1	0	38.1849	-0.189214	-0.189408	-0.000182031	2	5.75948e-06	3.4478e-08
2	1	0	1	0	38.2849	-0.184214	-0.184423	-0.000171309	2	5.74221e-06	3.15932e-08
2	1	0	1	0	38.3849	-0.179213	-0.179417	-0.000159933	2	5.72596e-06	2.86947e-08
2	1	0	1	0	38.4849	-0.174213	-0.17442	-0.00015409	2	5.71061e-06	2.68763e-08
2	1	0	1	0	38.5849	-0.169213	-0.169415	-0.000146745	2	5.69602e-06	2.48608e-08
2	1	0	1	0	38.6849	-0.164213	-0.16443	-0.000138537	2	5.68214e-06	2.27796e-08
2	1	0	1	0	38.7849	-0.159213	-0.159441	-0.000133112	2	5.66889e-06	2.12235e-08
2	1	0	1	0	38.8849	-0.154212	-0.154349	-0.000127762	2	5.65625e-06	1.97199e-08
2	1	0	1	0	38.9849	-0.149212	-0.149389	-0.000122706	2	5.64412e-06	1.83309e-08
2	1	0	1	0	39.0849	-0.144212	-0.14443	-0.000116964	2	5.63249e-06	1.6893e-08
2	1	0	1	0	39.1849	-0.139212	-0.139418	-0.000111977	2	5.62136e-06	1.56117e-08
2	1	0	1	0	39.2849	-0.134212	-0.134331	-0.000108216	2	5.61067e-06	1.45368e-08
2	1	0	1	0	39.3849	-0.129211	-0.129429	-0.000104281	2	5.6004e-06	1.3497e-08
2	1	0	1	0	39.4849	-0.124211	-0.124404	-9.96635e-05	2	5.59055e-06	1.23985e-08
2	1	0	1	0	39.5849	-0.119211	-0.119395	-9.73089e-05	2	5.58108e-06	1.16182e-08
2	1	0	1	0	39.6849	-0.114211	-0.114369	-9.36277e-05	2	5.572e-06	1.07081e-08
2	1	0	1	0	39.7849	-0.109211	-0.109439	-8.94414e-05	2	5.56328e-06	9.78839e-09
2	1	0	1	0	39.8849	-0.10421	-0.104388	-8.69631e-05	2	5.5549e-06	9.07788e-09
2	1	0	1	0	39.9849	-0.0992102	-0.0994348	-8.17399e-05	3	5.54685e-06	8.12779e-09
2	1	0	0	0	40.0851	-0.09421	-0.09443	-7.91822e-05	3	5.5391e-06	7.47717e-09
2	1	0	0	0	40.1851	-0.0892098	-0.0894431	-7.73398e-05	3	5.53167e-06	6.91752e-09
2	1	0	0	0	40.2851	-0.0842096	-0.084363	-7.22738e-05	3	5.52454e-06	6.09723e-09
2	1	0	0	0	40.3851	-0.0792094	-0.0793974	-7.07829e-05	3	5.51769e-06	5.61998e-09
2	1	0	0	0	40.4851	-0.0742092	-0.0744339	-6.77589e-05	3	5.51113e-06	5.04356e-09
2	1	0	0	0	40.5851	-0.069209	-0.0694524	-6.50139e-05	3	5.50485e-06	4.51537e-09
2	1	0	0	0	40.6851	-0.0642088	-0.0644041	-6.16948e-05	3	5.49884e-06	3.9734e-09
2	1	0	0	0	40.7851	-0.0592086	-0.0593685	-5.79748e-05	3	5.49311e-06	3.44187e-09
2	1	0	0	0	40.8851	-0.0542084	-0.0543996	-5.7104e-05	3	5.48765e-06	3.10644e-09
2	1	0	0	0	40.9851	-0.0492081	-0.0493757	-5.34705e-05	3	5.48252e-06	2.64014e-09
2	1	0	0	0	41.0851	-0.0442079	-0.0444186	-4.9346e-05	3	5.47766e-06	2.19188e-09
2	1	0	0	0	41.1851	-0.0392077	-0.0394211	-4.59174e-05	3	5.47314e-06	1.81012e-09
2	1	0	0	0	41.2851	-0.0342075	-0.0343856	-4.42552e-05	3	5.46899e-06	1.52174e-09
2	1	0	0	0	41.3851	-0.0292073	-0.0294104	-3.93376e-05	3	5.46524e-06	1.15693e-09
2	1	0	0	0	41.4851	-0.0242071	-0.0244183	-3.33548e-05	3	5.46197e-06	8.14466e-10
2	1	0	0	0	41.5851	-0.0192069	-0.019406	-2.77924e-05	3	5.45923e-06	5.39339e-10
2	1	0	0	0	41.6851	-0.0142067	-0.0143895	-1.98383e-05	3	5.45715e-06	2.85463e-10
2	1	0	0	0	41.7851	-0.00920652	-0.00942704	-1.29706e-05	3	5.45588e-06	1.22274e-10
2	1	0	0	0	41.8851	-0.00420631	-0.00434268	-1.81401e-06	3	5.45561e-06	7.87768e-12
2	1	0	0	0	41.9851	0.000793888	0.000612346	1.29425e-05	3	5.45664e-06	7.92526e-12
2	1	0	0	0	42.0851	0.00579409	0.00561507	3.16768e-05	3	5.45923e-06	1.77868e-10
2	1	0	0	0	42.1851	0.0107943	0.0105828	5.36773e-05	3	5.46383e-06	5.68057e-10
2	1	0	0	0	42.2851	0.0157945	0.0156428	8.28794e-05	3	5.47101e-06	1.29646e-09
2	1	0	0	0	42.3851	0.0207947	0.0206126	0.000118599	3	5.48143e-06	2.44465e-09
2	1	0	0	0	42.4851	0.0257949	0.0256546	0.000162281	3	5.4959e-06	4.16324e-09
2	1	0	0	0	42.5851	0.0307951	0.0305513	0.000218948	3	5.51537e-06	6.68916e-09
2	1	0	0	0	42.6851	0.0357953	0.035642	0.000285552	3	5.54091e-06	1.01777e-08
2	1	0	0	0	42.7851	0.0407955	0.0406289	0.000363051	3	5.57368e-06	1.47503e-08
2	1	0	0	0	42.8851	0.0457957	0.0456114	0.00045204	3	5.61475e-06	2.06182e-08
2	1	0	0	0	42.9851	0.0507959	0.0506661	0.000551112	3	5.66521e-06	2.79227e-08
2	1	0	0	0	43.0851	0.0557961	0.0556773	0.000654741	3	5.72585e-06	3.64542e-08
2	1	0	0	0	43.1851	0.0607963	0.0606641	0.000760656	3	5.79702e-06	4.61446e-08
2	1	0	0	0	43.2851	0.0657965	0.0656414	0.000863096	3	5.87866e-06	5.66549e-08
2	1	0	0	0	43.3851	0.0707967	0.0706187	0.000956774	3	5.97012e-06	6.75661e-08
2	1	0	0	0	43.4851	0.0757969	0.0756458	0.0010369	3	6.07031e-06	7.84369e-08
2	1	0	0	0	43.5851	0.0807971	0.0806316	0.00109987	3	6.17766e-06	8.86846e-08
2	1	0	0	0	43.6851	0.0857973	0.0856036	0.00114176	3	6.29029e-06	9.77388e-08
2	1	0	0	0	43.7851	0.0907975	0.090619	0.00116695	3	6.40629e-06	1.05748e-07
2	1	0	0	0	43.8851	0.0957977	0.0955815	0.00117323	3	6.52374e-06	1.12139e-07
2	1	0	0	0	43.9851	0.100798	0.100685	0.00116437	3	6.64107e-06	1.17235e-07
2	1	0	0	0	44.0851	0.105798	0.105649	0.00114408	3	6.75693e-06	1.20871e-07
2	1	0	0	0	44.1851	0.110798	0.110609	0.00111485	3	6.87037e-06	1.23312e-07
2	1	0	0	0	44.2851	0.115798	0.11564	0.00108404	3	6.98075e-06	1.25359e-07
2	1	0	0	0	44.3851	0.120799	0.120601	0.00104652	3	7.08772e-06	1.26212e-07
2	1	0	0	0	44.4851	0.125799	0.125605	0.00101269	3	7.19113e-06	1.27199e-07
2	1	0	0	0	44.5851	0.130799	0.130658	0.000976492	3	7.29098e-06	1.27586e-07
2	1	0	0	0	44.6851	0.135799	0.135654	0.00094442	3	7.3874e-06	1.28114e-07
2	1	0	0	0	44.7851	0.1408	0.140629	0.000912474	3	7.48054e-06	1.28321e-07
2	1	0	0	0	44.8851	0.1458	0.145631	0.000882196	3	7.57062e-06	1.28475e-07
2	1	0	1	0	44.9853	0.1508	0.15064	0.000854597	3	7.65799e-06	1.28737e-07
2	1	0	1	0	45.0853	0.1558	0.15566	0.000830662	3	7.74263e-06	1.29301e-07
2	1	0	1	0	45.1853	0.1608	0.160614	0.00080701	3	7.82482e-06	1.29617e-07
2	1	0	1	0	45.2853	0.165801	0.165666	0.000784919	3	7.90478e-06	1.30035e-07
2	1	0	1	0	45.3853	0.170801	0.170685	0.000765512	3	7.9827e-06	1.30661e-07
2	1	0	1	0	45.4853	0.175801	0.175682	0.000747684	3	8.05874e-06	1.31355e-07
2	1	0	1	0	45.5853	0.180801	0.180631	0.000731848	3	8.13304e-06	1.32194e-07
2	1	0	1	0	45.6853	0.185801	0.185644	0.000715348	3	8.20574e-06	1.328e-07
2	1	0	1	0	45.7853	0.190802	0.190589	0.000701003	3	8.27696e-06	1.33603e-07
2	1	0	1	0	45.8853	0.195802	0.195617	0.000689041	3	8.34681e-06	1.34788e-07
2	1	0	1	0	45.9853	0.200802	0.20061	0.000676751	3	8.41542e-06	1.35763e-07
2	1	0	1	0	46.0853	0.205802	0.205657	0.000666323	3	8.4829e-06	1.37034e-07
2	1	0	1	0	46.1853	0.210802	0.210646	0.000655365	3	8.54928e-06	1.3805e-07
2	1	0	1	0	46.2853	0.215803	0.215638	0.000645759	3	8.61468e-06	1.3925e-07
2	1	0	1	0	46.3853	0.220803	0.220679	0.00063692	3	8.67918e-06	1.40555e-07
2	1	0	1	0	46.4853	0.225803	0.225592	0.000629155	3	8.74281e-06	1.41932e-07
2	1	0	1	0	46.5853	0.230803	0.230634	0.000620687	3	8.80566e-06	1.43151e-07
2	1	0	1	0	46.6853	0.235803	0.235629	0.000614208	3	8.86777e-06	1.44725e-07
2	1	0	1	0	46.7853	0.240804	0.240634	0.000608345	3	8.9292e-06	1.46389e-07
2	1	0	1	0	46.8853	0.245804	0.245655	0.000601596	3	8.99001e-06	1.47785e-07
2	1	0	1	0	46.9853	0.250804	0.250642	0.000595878	3	9.05026e-06	1.49352e-07
2	1	0	1	0	47.0853	0.255804	0.255662	0.000592317	3	9.11002e-06	1.51433e-07
2	1	0	1	0	47.1853	0.260804	0.260623	0.000587445	3	9.1693e-06	1.53101e-07
2	1	0	1	0	47.2853	0.265805	0.265686	0.000582889	3	9.22819e-06	1.54865e-07
2	1	0	1	0	47.3853	0.270805	0.270617	0.000581037	3	9.28675e-06	1.57239e-07
2	1	0	1	0	47.4853	0.275805	0.275628	0.000578366	3	9.34502e-06	1.59414e-07
2	1	0	1	0	47.5853	0.280805	0.280662	0.000576622	3	9.40307e-06	1.61836e-07
2	1	0	1	0	47.6853	0.285805	0.285648	0.000574955	3	9.46097e-06	1.64235e-07
2	1	0	1	0	47.7853	0.290806	0.290658	0.000574012	3	9.51875e-06	1.66841e-07
2	1	0	1	0	47.8853	0.295806	0.295634	0.000574261	3	9.57649e-06	1.69771e-07
2	0	0	1	0	47.9749	0.299706	0.299536	0.000496702	3	9.62773e-06	1.4878e-07
2	0	0	1	0	48.0749	0.294706	0.294499	0.000452438	3	9.67441e-06	1.33242e-07
2	0	0	1	0	48.1749	0.289706	0.289524	0.00043126	3	9.71826e-06	1.2486e-07
2	0	0	1	0	48.2749	0.284705	0.284524	0.000414517	3	9.76025e-06	1.1794e-07
2	0	0	1	0	48.3749	0.279705	0.279466	0.00040046	3	9.80074e-06	1.11915e-07
2	0	0	1	0	48.4749	0.274705	0.274475	0.000389656	3	9.83999e-06	1.06951e-07
2	0	0	1	0	48.5749	0.269705	0.269549	0.000379297	3	9.87816e-06	1.02239e-07
2	0	0	1	0	48.6749	0.264705	0.264505	0.000370544	3	9.91537e-06	9.80107e-08
2	0	0	1	0	48.7749	0.259704	0.259482	0.000362498	3	9.95171e-06	9.40617e-08
2	0	0	1	0	48.8749	0.254704	0.254488	0.000353827	3	9.98725e-06	9.00446e-08
2	0	0	1	0	48.9749	0.249704	0.249527	0.000347337	3	1.00221e-05	8.66701e-08
2	0	0	1	0	49.0749	0.244704	0.244475	0.000340793	3	1.00562e-05	8.33152e-08
2	0	0	1	0	49.1749	0.239703	0.239498	0.000333946	3	1.00897e-05	7.99793e-08
2	0	0	1	0	49.2749	0.234703	0.234488	0.000329791	3	1.01226e-05	7.73323e-08
2	0	0	1	0	49.3749	0.229703	0.229524	0.000321601	3	1.0155e-05	7.38151e-08
2	0	0	1	0	49.4749	0.224703	0.224498	0.000317508	3	1.01867e-05	7.12799e-08
2	0	0	1	0	49.5749	0.219703	0.219526	0.000312926	3	1.02179e-05	6.86954e-08
2	0	0	1	0	49.6749	0.214702	0.214555	0.000308293	3	1.02486e-05	6.61457e-08
2	0	0	1	0	49.7749	0.209702	0.209473	0.000301907	3	1.02788e-05	6.32413e-08
2	0	0	1	0	49.8749	0.204702	0.204499	0.000297454	3	1.03085e-05	6.0829e-08
2	0	0	1	0	49.9749	0.199702	0.199481	0.00029154	3	1.03377e-05	5.81567e-08
2	0	0	1	0	50.0749	0.194702	0.194483	0.000287151	3	1.03664e-05	5.58458e-08
2	0	0	1	0	50.1749	0.189701	0.189484	0.000282256	3	1.03946e-05	5.3483e-08
2	0	0	1	0	50.2749	0.184701	0.184517	0.000276522	3	1.04223e-05	5.10232e-08
2	0	0	1	0	50.3749	0.179701	0.179515	0.000272212	3	1.04495e-05	4.88661e-08
2	0	0	1	0	50.4749	0.174701	0.174505	0.000266466	3	1.04762e-05	4.64996e-08
2	0	0	1	0	50.5749	0.169701	0.169497	0.000261158	3	1.05024e-05	4.42654e-08
2	0	0	1	0	50.6749	0.1647	0.164511	0.000255719	3	1.0528e-05	4.20686e-08
2	0	0	1	0	50.7749	0.1597	0.15951	0.000250653	3	1.0553e-05	3.99818e-08
2	0	0	1	0	50.8749	0.1547	0.154475	0.00024377	3	1.05775e-05	3.76562e-08
2	0	0	1	0	50.9749	0.1497	0.149468	0.000237865	3	1.06013e-05	3.55531e-08
2	0	0	0	0	51.0751	0.1447	0.14449	0.000229969	3	1.06245e-05	3.32283e-08
2	0	0	0	0	51.1751	0.139699	0.139442	0.000221874	3	1.06469e-05	3.09385e-08
2	0	0	0	0	51.2751	0.134699	0.13445	0.000214587	3	1.06685e-05	2.88512e-08
2	0	0	0	0	51.3751	0.129699	0.129473	0.000204616	3	1.06892e-05	2.64921e-08
2	0	0	0	0	51.4751	0.124699	0.124472	0.000192405	3	1.07088e-05	2.3949e-08
2	0	0	0	0	51.5751	0.119699	0.119459	0.000179323	3	1.07272e-05	2.14217e-08
2	0	0	0	0	51.6751	0.114698	0.114498	0.000164559	3	1.07442e-05	1.88418e-08
2	0	0	0	0	51.7751	0.109698	0.109481	0.000145182	3	1.07594e-05	1.58946e-08
2	0	0	0	0	51.8751	0.104698	0.104452	0.000123959	3	1.07727e-05	1.29477e-08
2	0	0	0	0	51.9751	0.0996979	0.0994721	9.62298e-05	3	1.07835e-05	9.57218e-09
2	0	0	0	0	52.0751	0.0946977	0.0944991	6.53267e-05	3	1.07914e-05	6.17331e-09
2	0	0	0	0	52.1751	0.0896975	0.0895059	2.34772e-05	3	1.07956e-05	2.10135e-09
2	0	0	0	0	52.2751	0.0846973	0.0844661	-2.19827e-05	3	1.07955e-05	-1.85679e-09
2	0	0	0	0	52.3751	0.0796971	0.0794421	-8.20649e-05	3	1.079e-05	-6.51941e-09
2	0	0	0	0	52.4751	0.0746969	0.0745189	-0.000150836	3	1.07782e-05	-1.12401e-08
2	0	0	0	0	52.5751	0.0696967	0.0694791	-0.000231099	3	1.07589e-05	-1.60566e-08
2	0	0	0	0	52.6751	0.0646964	0.0644604	-0.00032449	3	1.07309e-05	-2.09168e-08
2	0	0	0	0	52.7751	0.0596963	0.0594641	-0.000424903	3	1.06932e-05	-2.52665e-08
2	0	0	0	0	52.8751	0.0546961	0.0545112	-0.000533879	3	1.0645e-05	-2.91024e-08
2	0	0	0	0	52.9751	0.0496959	0.049465	-0.000645321	3	1.05859e-05	-3.19208e-08
2	0	0	0	0	53.0751	0.0446957	0.0445004	-0.000750807	3	1.05158e-05	-3.34112e-08
2	0	0	0	0	53.1751	0.0396955	0.0394903	-0.000844781	3	1.04357e-05	-3.33606e-08
2	0	0	0	0	53.2751	0.0346953	0.0344409	-0.000922308	3	1.03469e-05	-3.17651e-08
2	0	0	0	0	53.3751	0.0296951	0.0294212	-0.000978306	3	1.02515e-05	-2.8783e-08
2	0	0	0	0	53.4751	0.0246949	0.0245033	-0.00101085	3	1.01516e-05	-2.47692e-08
2	0	0	0	0	53.5751	0.0196946	0.0194815	-0.0010212	3	1.00496e-05	-1.98946e-08
2	0	0	0	0	53.6751	0.0146944	0.0144682	-0.001009	3	9.9477e-06	-1.45984e-08
2	0	0	0	0	53.7751	0.00969425	0.00948559	-0.000984241	3	9.8476e-06	-9.3361e-09
2	0	0	0	0	53.8751	0.00469405	0.00449876	-0.000948401	3	9.75064e-06	-4.26663e-09
2	0	0	0	0	53.9751	-0.000306156	-0.000512447	-0.00090703	3	9.65761e-06	4.64804e-10
2	0	0	0	0	54.0751	-0.00530636	-0.00553426	-0.000861897	3	9.5688e-06	4.76996e-09
2	0	0	0	0	54.1751	-0.0103066	-0.0104829	-0.000817725	3	9.48449e-06	8.57214e-09
2	0	0	0	0	54.2751	-0.0153068	-0.0155493	-0.000777106	3	9.40448e-06	1.20834e-08
2	0	0	0	0	54.3751	-0.020307	-0.0205212	-0.000737829	3	9.32854e-06	1.51412e-08
2	0	0	0	0	54.4751	-0.0253072	-0.0254826	-0.000701867	3	9.25636e-06	1.78854e-08
2	0	0	0	0	54.5751	-0.0303074	-0.0304938	-0.000668775	3	9.18761e-06	2.03935e-08
2	0	0	0	0	54.6751	-0.0353076	-0.0355379	-0.000638513	3	9.12197e-06	2.26914e-08
2	0	0	0	0	54.7751	-0.0403078	-0.0405693	-0.000611851	3	9.05916e-06	2.48224e-08
2	0	0	0	0	54.8751	-0.045308	-0.0455222	-0.000589169	3	8.99886e-06	2.68202e-08
2	0	0	0	0	54.9751	-0.0503082	-0.0505207	-0.000567653	3	8.94087e-06	2.86782e-08
2	0	0	0	0	55.0751	-0.0553084	-0.0555626	-0.00054648	3	8.8849e-06	3.03639e-08
2	0	0	0	0	55.1751	-0.0603086	-0.0605569	-0.000528984	3	8.83083e-06	3.20336e-08
2	0	0	0	0	55.2751	-0.0653088	-0.065531	-0.000512871	3	8.77848e-06	3.3609e-08
2	0	0	0	0	55.3751	-0.070309	-0.0705348	-0.000496935	3	8.72769e-06	3.50512e-08
2	0	0	0	0	55.4751	-0.0753092	-0.0755438	-0.000483865	3	8.67834e-06	3.6553e-08
2	0	0	0	0	55.5751	-0.0803094	-0.080537	-0.00047149	3	8.63029e-06	3.79724e-08
2	0	0	0	0	55.6751	-0.0853096	-0.0855535	-0.000458487	3	8.58349e-06	3.92252e-08
2	0	0	0	0	55.7751	-0.0903098	-0.0905128	-0.000448758	3	8.53783e-06	4.06184e-08
2	0	0	0	0	55.8751	-0.09531	-0.095542	-0.00043958	3	8.49322e-06	4.19984e-08
2	0	0	1	0	55.9753	-0.10031	-0.100507	-0.000428948	3	8.44953e-06	4.31121e-08
2	0	0	1	0	56.0753	-0.10531	-0.105545	-0.000420362	3	8.40683e-06	4.43672e-08
2	0	0	1	0	56.1753	-0.110311	-0.110463	-0.000411752	3	8.365e-06	4.54835e-08
2	0	0	1	0	56.2753	-0.115311	-0.115593	-0.000404349	3	8.32397e-06	4.674e-08
2	0	0	1	0	56.3753	-0.120311	-0.120538	-0.000397091	3	8.28369e-06	4.78644e-08
2	0	0	1	0	56.4753	-0.125311	-0.125545	-0.00038945	3	8.24414e-06	4.88933e-08
2	0	0	1	0	56.5753	-0.130311	-0.130518	-0.000384032	3	8.20525e-06	5.0123e-08
2	0	0	1	0	56.6753	-0.135312	-0.135577	-0.000376938	3	8.16702e-06	5.1104e-08
2	0	0	1	0	56.7753	-0.140312	-0.140553	-0.00037128	3	8.12939e-06	5.21845e-08
2	0	0	1	0	56.8753	-0.145312	-0.145512	-0.000366951	3	8.09234e-06	5.33958e-08
2	0	0	1	0	56.9753	-0.150312	-0.150519	-0.000360306	3	8.05583e-06	5.42329e-08
2	0	0	1	0	57.0753	-0.155312	-0.155551	-0.00035551	3	8.0198e-06	5.53001e-08
2	0	0	1	0	57.1753	-0.160313	-0.1605	-0.000351605	3	7.98427e-06	5.64326e-08
2	0	0	1	0	57.2753	-0.165313	-0.165575	-0.000346487	3	7.94918e-06	5.73696e-08
2	0	0	1	0	57.3753	-0.170313	-0.17054	-0.000342425	3	7.91447e-06	5.83969e-08
2	0	0	1	0	57.4753	-0.175313	-0.175524	-0.000339719	3	7.88014e-06	5.96288e-08
2	0	0	1	0	57.5753	-0.180313	-0.180489	-0.000336912	3	7.84615e-06	6.08088e-08
2	0	0	1	0	57.6753	-0.185314	-0.185545	-0.000332937	3	7.81246e-06	6.17747e-08
2	0	0	1	0	57.7753	-0.190314	-0.190541	-0.00033062	3	7.77904e-06	6.29966e-08
2	0	0	1	0	57.8753	-0.195314	-0.195547	-0.000328256	3	7.74586e-06	6.41895e-08
2	1	0	1	1	57.9692	-0.199989	-0.20039	-0.000318914	3	7.71493e-06	6.39073e-08
2	1	0	0	1	58.0647	-0.195214	-0.195447	-0.000208518	3	7.69408e-06	4.07542e-08
2	1	0	0	1	58.1647	-0.190214	-0.190351	-0.000190725	3	7.67451e-06	3.63047e-08
2	1	0	0	1	58.2647	-0.185214	-0.185428	-0.000179116	3	7.65632e-06	3.32131e-08
2	1	0	0	1	58.3647	-0.180213	-0.180401	-0.000168433	3	7.6392e-06	3.03854e-08
2	1	0	0	1	58.4647	-0.175213	-0.175393	-0.000159721	3	7.62301e-06	2.80139e-08
2	1	0	0	1	58.5647	-0.170213	-0.170444	-0.000152776	3	7.60759e-06	2.60397e-08
2	1	0	0	1	58.6647	-0.165213	-0.165375	-0.000146899	3	7.5929e-06	2.42933e-08
2	1	0	0	1	58.7647	-0.160213	-0.160394	-0.000140312	3	7.57883e-06	2.25052e-08
2	1	0	0	1	58.8647	-0.155212	-0.155367	-0.000135232	3	7.56537e-06	2.10105e-08
2	1	0	0	1	58.9647	-0.150212	-0.150407	-0.000129657	3	7.55248e-06	1.95013e-08
2	1	0	0	1	59.0647	-0.145212	-0.145455	-0.000123218	3	7.54009e-06	1.79227e-08
2	1	0	0	1	59.1647	-0.140212	-0.140444	-0.000117808	3	7.52817e-06	1.65454e-08
2	1	0	0	1	59.2647	-0.135212	-0.13535	-0.000114671	3	7.51673e-06	1.55207e-08
2	1	0	0	1	59.3647	-0.130211	-0.130424	-0.000111168	3	7.50571e-06	1.4499e-08
2	1	0	0	1	59.4647	-0.125211	-0.125396	-0.000106275	3	7.49513e-06	1.33265e-08
2	1	0	0	1	59.5647	-0.120211	-0.120381	-0.000102174	3	7.48495e-06	1.22997e-08
2	1	0	0	1	59.6647	-0.115211	-0.115444	-9.80897e-05	3	7.47515e-06	1.13238e-08
2	1	0	0	1	59.7647	-0.110211	-0.110429	-9.53853e-05	3	7.46573e-06	1.05333e-08
2	1	0	0	1	59.8647	-0.10521	-0.10544	-9.24849e-05	3	7.45665e-06	9.75164e-09
2	1	0	0	1	59.9647	-0.10021	-0.100424	-8.90545e-05	3	7.44793e-06	8.9432e-09
2	1	0	1	1	60.0649	-0.09521	-0.0954021	-8.47039e-05	3	7.4395e-06	8.08093e-09
2	1	0	1	1	60.1649	-0.0902098	-0.0904025	-8.2178e-05	3	7.43141e-06	7.4291e-09
2	1	0	1	1	60.2649	-0.0852096	-0.0854009	-8.02208e-05	3	7.42362e-06	6.85093e-09
2	1	0	1	1	60.3649	-0.0802094	-0.0804151	-7.54604e-05	3	7.41612e-06	6.06815e-09
2	1	0	1	1	60.4649	-0.0752092	-0.0754505	-7.448e-05	3	7.40892e-06	5.61956e-09
2	1	0	1	1	60.5649	-0.070209	-0.0704457	-7.06204e-05	3	7.40199e-06	4.97491e-09
2	1	0	1	1	60.6649	-0.0652088	-0.0653751	-6.77041e-05	3	7.39534e-06	4.42617e-09
2	1	0	1	1	60.7649	-0.0602086	-0.0604031	-6.41272e-05	3	7.38898e-06	3.87348e-09
2	1	0	1	1	60.8649	-0.0552084	-0.0553866	-6.18291e-05	3	7.38291e-06	3.4245e-09
2	1	0	1	1	60.9649	-0.0502082	-0.0503892	-6.00344e-05	3	7.37716e-06	3.02509e-09
2	1	0	1	1	61.0649	-0.045208	-0.0453865	-5.43643e-05	3	7.3717e-06	2.4674e-09
2	1	0	1	1	61.1649	-0.0402078	-0.0404177	-5.25661e-05	3	7.36656e-06	2.1246e-09
2	1	0	1	1	61.2649	-0.0352076	-0.035451	-4.85776e-05	3	7.36179e-06	1.72212e-09
2	1	0	1	1	61.3649	-0.0302074	-0.030426	-4.40821e-05	3	7.35743e-06	1.34124e-09
2	1	0	1	1	61.4064	-0.0281323	-0.0285358	-3.35685e-05	3	7.35574e-06	9.57904e-10