File: AutoAnalysis Examples/EC/C003B-5ppb-B_C01.mpt
EC-Lab ASCII FILE
Nb header lines : 59

Cyclic Voltammetry

Run on channel : 1 (SN 22398)
User :
CE vs. WE compliance from -10 V to 10 V
Electrode connection : standard
Ewe ctrl range : min = -1.00 V, max = 1.00 V
Safety Limits :
	Ewe min = -2.00 V
	Ewe max = 2.00 V
	|I| = 50.000 mA
	for t > 10 ms
Acquisition started on : 11/21/2018 11:11:32
Technique started on : 11/21/2018 11:11:32
Saved on :
	File : C003B-5ppb-B_C01.mpr
	Directory : \\ECCOMPUTER\Users\Lab User\Google Drive\Electrochemical Data\EC-Lab\Data\FREDsense\Tim\2018.11.21 - EC comparison to High Throughput\
	Host : 172.16.1.30
Device : SP-50 (SN 0301030103010301)
Address : USB
EC-Lab for windows v11.02 (software)
Internet server v11.02 (firmware)
Command interpretor v11.02 (firmware)
Electrode material : Au/Pd
Initial state :
Electrolyte : NaCl (0.2M)
Comments : Fe(CN)63-/Fe(CN)64- 5.10-3 M
Reference electrode : SCE Saturated Calomel Electrode (0.241 V)
Electrode surface area : 0.001 cm²
Characteristic mass : 0.001 g
Equivalent Weight : 0.000 g/eq.
Density : 0.000 g/cm3
Cycle Definition : Charge/Discharge alternance
Ei (V)              -0.100
vs.                 Ref
dE/dt               50.000
dE/dt unit          mV/s
E1 (V)              0.300
vs.                 Ref
Step percent        50
N                   10
E range min (V)     -1.000
E range max (V)     1.000
I Range             Auto
I Range min         Unset
I Range max         Unset
I Range init        Unset
Bandwidth           5
E2 (V)              -0.200
vs.                 Ref
nc cycles           2
Reverse Scan        1
Ef (V)              0.000
vs.                 Eoc

mode	ox/red	error	control changes	counter inc.	time/s	control/V	Ewe/V	<I>/mA	cycle number	(Q-Qo)/C	P/W
2	1	0	1	0	0.000000000000000E+000	-0.0984851	-0.0988121	-8.57715e-05	1	0.0000000E+000	8.47526e-09
2	1	0	0	0	0.111	-0.0929349	-0.0931711	-5.71477e-06	1	1.83844e-09	5.32452e-10
2	1	0	1	0	0.2265	-0.0871597	-0.0874359	3.52273e-05	1	6.55121e-09	-3.08013e-09
2	1	0	1	0	0.3265	-0.0821595	-0.0823685	4.29977e-05	1	1.07933e-08	-3.54165e-09
2	1	0	1	0	0.4265	-0.0771593	-0.0773742	4.56667e-05	1	1.5515e-08	-3.53343e-09
2	1	0	1	0	0.5265	-0.0721591	-0.0723959	4.84682e-05	1	2.05686e-08	-3.5089e-09
2	1	0	1	0	0.6265	-0.0671589	-0.0673741	5.20222e-05	1	2.58909e-08	-3.50495e-09
2	1	0	1	0	0.7265	-0.0621587	-0.0624106	5.39882e-05	1	3.14816e-08	-3.36943e-09
2	1	0	1	0	0.8265	-0.0571585	-0.0574206	5.58182e-05	1	3.72498e-08	-3.20511e-09
2	1	0	1	0	0.9265	-0.0521583	-0.0523818	6.05769e-05	1	4.32548e-08	-3.17312e-09
2	1	0	1	0	1.0265	-0.0471581	-0.0473653	5.99957e-05	1	4.94665e-08	-2.84171e-09
2	1	0	1	0	1.1265	-0.0421579	-0.0423604	6.1801e-05	1	5.58842e-08	-2.61792e-09
2	1	0	1	0	1.2265	-0.0371577	-0.0373715	6.51077e-05	1	6.25549e-08	-2.43317e-09
2	1	0	1	0	1.3265	-0.0321575	-0.0323762	6.77272e-05	1	6.94726e-08	-2.19275e-09
2	1	0	1	0	1.4265	-0.0271573	-0.0273671	7.12212e-05	1	7.66864e-08	-1.94912e-09
2	1	0	1	0	1.5265	-0.022157	-0.0223951	7.43547e-05	1	8.42626e-08	-1.66518e-09
2	1	0	1	0	1.6265	-0.0171568	-0.0173616	7.99772e-05	1	9.22832e-08	-1.38853e-09
2	1	0	1	0	1.7265	-0.0121566	-0.0124024	8.62302e-05	1	1.00846e-07	-1.06946e-09
2	1	0	1	0	1.8265	-0.00715643	-0.00735617	9.4663e-05	1	1.10107e-07	-6.96357e-10
2	1	0	1	0	1.9265	-0.00215623	-0.00238419	0.000104424	1	1.20278e-07	-2.48967e-10
2	1	0	1	0	2.0265	0.00284397	0.00257189	0.000117729	1	1.31708e-07	3.02786e-10
2	1	0	1	0	2.1265	0.00784417	0.00758522	0.000136295	1	1.44686e-07	1.03383e-09
2	1	0	1	0	2.2265	0.0128444	0.0126728	0.000160839	1	1.59749e-07	2.03828e-09
2	1	0	1	0	2.3265	0.0178446	0.0175939	0.00019164	1	1.7754e-07	3.37168e-09
2	1	0	1	0	2.4265	0.0228448	0.0225722	0.000231831	1	1.98868e-07	5.23293e-09
2	1	0	1	0	2.5265	0.027845	0.0276958	0.000281413	1	2.24778e-07	7.79396e-09
2	1	0	1	0	2.6265	0.0328452	0.0327123	0.000345935	1	2.56347e-07	1.13163e-08
2	1	0	1	0	2.7265	0.0378454	0.0375814	0.000423117	1	2.94887e-07	1.59014e-08
2	1	0	1	0	2.8265	0.0428456	0.0426637	0.000511188	1	3.41715e-07	2.18092e-08
2	1	0	1	0	2.9265	0.0478458	0.0476728	0.000610627	1	3.98029e-07	2.91103e-08
2	1	0	1	0	3.0265	0.052846	0.0526691	0.000720843	1	4.64872e-07	3.79662e-08
2	1	0	1	0	3.1265	0.0578462	0.0576379	0.000829962	1	5.42659e-07	4.78373e-08
2	1	0	1	0	3.2265	0.0628464	0.0627106	0.000935773	1	6.3132e-07	5.86829e-08
2	1	0	1	0	3.3265	0.0678466	0.0676201	0.00103352	1	7.30198e-07	6.98867e-08
2	1	0	1	0	3.4265	0.0728468	0.0726779	0.00111049	1	8.37879e-07	8.07081e-08
2	1	0	1	0	3.5265	0.077847	0.0777018	0.00117228	1	9.52558e-07	9.10887e-08
2	1	0	1	0	3.6265	0.0828472	0.0826081	0.00121151	1	1.07216e-06	1.0008e-07
2	1	0	1	0	3.7265	0.0878474	0.087685	0.00122769	1	1.19457e-06	1.0765e-07
2	1	0	1	0	3.8265	0.0928476	0.0926697	0.00122889	1	1.3179e-06	1.1388e-07
2	1	0	1	0	3.9265	0.0978478	0.0976894	0.00121521	1	1.44055e-06	1.18713e-07
2	1	0	1	0	4.0265	0.102848	0.102725	0.00119165	1	1.56132e-06	1.22412e-07
2	1	0	1	0	4.1265	0.107848	0.107601	0.00116215	1	1.67941e-06	1.25048e-07
2	1	0	1	0	4.2265	0.112848	0.112694	0.00113038	1	1.79434e-06	1.27387e-07
2	1	0	1	0	4.3265	0.117849	0.117623	0.00109458	1	1.9059e-06	1.28747e-07
2	1	0	1	0	4.4265	0.122849	0.122643	0.00106093	1	2.01403e-06	1.30115e-07
2	1	0	1	0	4.5265	0.127849	0.127659	0.0010291	1	2.11881e-06	1.31373e-07
2	1	0	1	0	4.6265	0.132849	0.132643	0.000997623	1	2.22042e-06	1.32328e-07
2	1	0	1	0	4.7265	0.137849	0.137629	0.000969218	1	2.31904e-06	1.33392e-07
2	1	0	1	0	4.8265	0.14285	0.142702	0.000941754	1	2.41492e-06	1.3439e-07
2	1	0	0	0	4.9267	0.14785	0.147641	0.000918418	1	2.50841e-06	1.35597e-07
2	1	0	0	0	5.0267	0.15285	0.152681	0.000899362	1	2.5994e-06	1.37316e-07
2	1	0	0	0	5.1267	0.15785	0.157663	0.000874096	1	2.68827e-06	1.37812e-07
2	1	0	0	0	5.2267	0.16285	0.16269	0.000857449	1	2.77519e-06	1.39498e-07
2	1	0	0	0	5.3267	0.167851	0.167652	0.000838286	1	2.86036e-06	1.40541e-07
2	1	0	0	0	5.4267	0.172851	0.172662	0.000824981	1	2.9439e-06	1.42443e-07
2	1	0	0	0	5.5267	0.177851	0.177691	0.000810944	1	3.02598e-06	1.44097e-07
2	1	0	0	0	5.6267	0.182851	0.182686	0.000797648	1	3.10672e-06	1.45719e-07
2	1	0	0	0	5.7267	0.187851	0.187654	0.000785568	1	3.18625e-06	1.47415e-07
2	1	0	0	0	5.8267	0.192852	0.192682	0.000774771	1	3.26468e-06	1.49284e-07
2	1	0	0	0	5.9267	0.197852	0.197662	0.00076466	1	3.34209e-06	1.51145e-07
2	1	0	0	0	6.0267	0.202852	0.202632	0.000756887	1	3.41855e-06	1.53369e-07
2	1	0	0	0	6.1267	0.207852	0.207752	0.000749088	1	3.49422e-06	1.55625e-07
2	1	0	0	0	6.2267	0.212852	0.212675	0.00074295	1	3.56912e-06	1.58007e-07
2	1	0	0	0	6.3267	0.217853	0.217671	0.000736087	1	3.64335e-06	1.60225e-07
2	1	0	0	0	6.4267	0.222853	0.22269	0.000729854	1	3.71697e-06	1.62531e-07
2	1	0	0	0	6.5267	0.227853	0.227691	0.000725309	1	3.79004e-06	1.65146e-07
2	1	0	0	0	6.6267	0.232853	0.232665	0.000719257	1	3.86262e-06	1.67346e-07
2	1	0	0	0	6.7267	0.237853	0.237682	0.000716491	1	3.93477e-06	1.70297e-07
2	1	0	0	0	6.8267	0.242854	0.242693	0.000711875	1	4.00653e-06	1.72767e-07
2	1	0	0	0	6.9267	0.247854	0.247636	0.00070928	1	4.07795e-06	1.75643e-07
2	1	0	0	0	7.0267	0.252854	0.252652	0.000706048	1	4.14908e-06	1.78384e-07
2	1	0	0	0	7.1267	0.257854	0.257676	0.000703824	1	4.21998e-06	1.81358e-07
2	1	0	0	0	7.2267	0.262854	0.262652	0.000701639	1	4.29064e-06	1.84287e-07
2	1	0	0	0	7.3267	0.267855	0.267699	0.000701462	1	4.36114e-06	1.87781e-07
2	1	0	0	0	7.4267	0.272855	0.272731	0.000700044	1	4.43152e-06	1.90924e-07
2	1	0	0	0	7.5267	0.277855	0.277718	0.000698094	1	4.50178e-06	1.93873e-07
2	1	0	0	0	7.6267	0.282855	0.282689	0.000698758	1	4.572e-06	1.97531e-07
2	1	0	0	0	7.7267	0.287855	0.287705	0.00069859	1	4.64217e-06	2.00988e-07
2	1	0	0	0	7.8267	0.292856	0.292662	0.000697253	1	4.71232e-06	2.04059e-07
2	1	0	0	0	7.9267	0.297856	0.297697	0.000698456	1	4.7825e-06	2.07928e-07
2	0	0	1	0	8.0153	0.297706	0.29752	0.000576682	1	4.83956e-06	1.71575e-07
2	0	0	1	0	8.1153	0.292706	0.292532	0.000530675	1	4.8945e-06	1.5524e-07
2	0	0	1	0	8.2153	0.287705	0.287512	0.00050146	1	4.94585e-06	1.44176e-07
2	0	0	1	0	8.3153	0.282705	0.282535	0.000479214	1	4.99454e-06	1.35395e-07
2	0	0	1	0	8.4153	0.277705	0.277527	0.000459242	1	5.04109e-06	1.27452e-07
2	0	0	1	0	8.5153	0.272705	0.272493	0.000441214	1	5.08587e-06	1.20228e-07
2	0	0	1	0	8.6153	0.267705	0.267565	0.000426883	1	5.12913e-06	1.14219e-07
2	0	0	1	0	8.7153	0.262704	0.262519	0.000415405	1	5.17104e-06	1.09052e-07
2	0	0	1	0	8.8153	0.257704	0.257506	0.000403978	1	5.21176e-06	1.04027e-07
2	0	0	1	0	8.9153	0.252704	0.2525	0.000392571	1	5.25138e-06	9.91242e-08
2	0	0	1	0	9.0153	0.247704	0.247477	0.000384317	1	5.29007e-06	9.51096e-08
2	0	0	1	0	9.1153	0.242704	0.242507	0.000376255	1	5.32785e-06	9.12445e-08
2	0	0	1	0	9.2153	0.237703	0.23743	0.000367773	1	5.36481e-06	8.73204e-08
2	0	0	1	0	9.3153	0.232703	0.232523	0.000361157	1	5.40099e-06	8.39774e-08
2	0	0	1	0	9.4153	0.227703	0.227531	0.000353989	1	5.43644e-06	8.05435e-08
2	0	0	1	0	9.5153	0.222703	0.222474	0.000346198	1	5.47121e-06	7.702e-08
2	0	0	1	0	9.6153	0.217703	0.217514	0.00033939	1	5.50532e-06	7.3822e-08
2	0	0	1	0	9.7153	0.212702	0.212492	0.000333881	1	5.53879e-06	7.0947e-08
2	0	0	1	0	9.8153	0.207702	0.207488	0.000327953	1	5.57166e-06	6.80463e-08
2	0	0	1	0	9.9153	0.202702	0.202509	0.000322235	1	5.60391e-06	6.52554e-08
2	0	0	1	0	10.0153	0.197702	0.19751	0.000316157	1	5.63559e-06	6.24442e-08
2	0	0	1	0	10.1153	0.192702	0.192535	0.000310109	1	5.66671e-06	5.97068e-08
2	0	0	1	0	10.2153	0.187701	0.187488	0.000304748	1	5.69725e-06	5.71365e-08
2	0	0	1	0	10.3153	0.182701	0.182473	0.000299669	1	5.7272e-06	5.46817e-08
2	0	0	1	0	10.4153	0.177701	0.177514	0.000292865	1	5.75659e-06	5.19877e-08
2	0	0	1	0	10.5153	0.172701	0.17255	0.000287008	1	5.78541e-06	4.95231e-08
2	0	0	1	0	10.6153	0.167701	0.167528	0.000281574	1	5.81366e-06	4.71715e-08
2	0	0	1	0	10.7153	0.1627	0.162478	0.000275371	1	5.84127e-06	4.47418e-08
2	0	0	1	0	10.8153	0.1577	0.15748	0.00026886	1	5.86829e-06	4.234e-08
2	0	0	1	0	10.9153	0.1527	0.15247	0.000258867	1	5.89464e-06	3.94694e-08
2	0	0	1	0	11.0153	0.1477	0.147512	0.000257189	1	5.92039e-06	3.79384e-08
2	0	0	0	0	11.1155	0.1427	0.1425	0.000248316	1	5.94555e-06	3.53852e-08
2	0	0	0	0	11.2155	0.137699	0.13752	0.000238932	1	5.96969e-06	3.28579e-08
2	0	0	0	0	11.3155	0.132699	0.13253	0.000229133	1	5.9929e-06	3.0367e-08
2	0	0	0	0	11.4155	0.127699	0.127458	0.000219563	1	6.01513e-06	2.79851e-08
2	0	0	0	0	11.5155	0.122699	0.122477	0.000205465	1	6.03612e-06	2.51648e-08
2	0	0	0	0	11.6155	0.117699	0.117515	0.000194521	1	6.05583e-06	2.28592e-08
2	0	0	0	0	11.7155	0.112698	0.1125	0.000176689	1	6.07413e-06	1.98775e-08
2	0	0	0	0	11.8155	0.107698	0.107415	0.000154314	1	6.09052e-06	1.65756e-08
2	0	0	0	0	11.9155	0.102698	0.102533	0.000131706	1	6.10468e-06	1.35042e-08
2	0	0	0	0	12.0155	0.0976978	0.0975162	0.000101481	1	6.1162e-06	9.89607e-09
2	0	0	0	0	12.1155	0.0926976	0.0924753	6.54503e-05	1	6.12447e-06	6.05254e-09
2	0	0	0	0	12.2155	0.0876974	0.0874705	2.22408e-05	1	6.12874e-06	1.94541e-09
2	0	0	0	0	12.3155	0.0826972	0.0824836	-3.02177e-05	1	6.12817e-06	-2.49246e-09
2	0	0	0	0	12.4155	0.077697	0.0775085	-9.61714e-05	1	6.12172e-06	-7.45409e-09
2	0	0	0	0	12.5155	0.0726968	0.072493	-0.00017208	1	6.10824e-06	-1.24746e-08
2	0	0	0	0	12.6155	0.0676966	0.0675263	-0.000260109	1	6.0866e-06	-1.75642e-08
2	0	0	0	0	12.7155	0.0626964	0.0624589	-0.000357934	1	6.05565e-06	-2.23561e-08
2	0	0	0	0	12.8155	0.0576962	0.0575283	-0.000462193	1	6.01446e-06	-2.65892e-08
2	0	0	0	0	12.9155	0.052696	0.0525245	-0.000572252	1	5.96249e-06	-3.00573e-08
2	0	0	0	0	13.0155	0.0476958	0.047508	-0.00067727	1	5.89967e-06	-3.21757e-08
2	0	0	0	0	13.1155	0.0426956	0.0424724	-0.000771747	1	5.82685e-06	-3.2778e-08
2	0	0	0	0	13.2155	0.0376954	0.037492	-0.000848211	1	5.74544e-06	-3.18011e-08
2	0	0	0	0	13.3155	0.0326952	0.0324627	-0.000904112	1	5.65745e-06	-2.93499e-08
2	0	0	0	0	13.4155	0.027695	0.0274568	-0.000931903	1	5.56527e-06	-2.55871e-08
2	0	0	0	0	13.5155	0.0226948	0.0224753	-0.000939401	1	5.47127e-06	-2.11133e-08
2	0	0	0	0	13.6155	0.0176946	0.0175097	-0.000925646	1	5.37765e-06	-1.62078e-08
2	0	0	0	0	13.7155	0.0126944	0.0124868	-0.000898477	1	5.28613e-06	-1.12191e-08
2	0	0	0	0	13.8155	0.00769417	0.00751906	-0.000860749	1	5.1979e-06	-6.47202e-09
2	0	0	0	0	13.9155	0.00269396	0.00245696	-0.000817583	1	5.11368e-06	-2.00877e-09
2	0	0	0	0	14.0155	-0.00230624	-0.00255213	-0.00077531	1	5.03376e-06	1.97869e-09
2	0	0	0	0	14.1155	-0.00730644	-0.00753047	-0.000731387	1	4.95822e-06	5.50769e-09
2	0	0	0	0	14.2155	-0.0123066	-0.0125364	-0.00069148	1	4.88688e-06	8.66866e-09
2	0	0	0	0	14.3155	-0.0173068	-0.0175158	-0.000653459	1	4.81944e-06	1.14458e-08
2	0	0	0	0	14.4155	-0.0223071	-0.0225758	-0.000620083	1	4.75557e-06	1.39988e-08
2	0	0	0	0	14.5155	-0.0273073	-0.027535	-0.00058866	1	4.69495e-06	1.62088e-08
2	0	0	0	0	14.6155	-0.0323075	-0.0325621	-0.000561954	1	4.63725e-06	1.82984e-08
2	0	0	0	0	14.7155	-0.0373077	-0.0375214	-0.000536426	1	4.58217e-06	2.01275e-08
2	0	0	0	0	14.8155	-0.0423079	-0.0425771	-0.00051312	1	4.52942e-06	2.18472e-08
2	0	0	0	0	14.9155	-0.0473081	-0.0475173	-0.000494833	1	4.47879e-06	2.35131e-08
2	0	0	0	0	15.0155	-0.0523083	-0.0525603	-0.000478764	1	4.43005e-06	2.5164e-08
2	0	0	0	0	15.1155	-0.0573085	-0.0575843	-0.000459757	1	4.38301e-06	2.64748e-08
2	0	0	0	0	15.2155	-0.0623087	-0.0625414	-0.000445752	1	4.33756e-06	2.78779e-08
2	0	0	0	0	15.3155	-0.0673089	-0.0675706	-0.000431287	1	4.29351e-06	2.91423e-08
2	0	0	0	0	15.4155	-0.0723091	-0.0725331	-0.00042007	1	4.25078e-06	3.0469e-08
2	0	0	0	0	15.5155	-0.0773093	-0.0775326	-0.000407689	1	4.20924e-06	3.16092e-08
2	0	0	0	0	15.6155	-0.0823095	-0.0825778	-0.000396904	1	4.16877e-06	3.27754e-08
2	0	0	0	0	15.7155	-0.0873097	-0.0875466	-0.000387604	1	4.12934e-06	3.39334e-08
2	0	0	0	0	15.8155	-0.0923099	-0.0925313	-0.00037962	1	4.09082e-06	3.51267e-08
2	0	0	0	0	15.9155	-0.0973101	-0.0975383	-0.000370079	1	4.0532e-06	3.60969e-08
2	0	0	1	0	16.0157	-0.10231	-0.102536	-0.000361429	1	4.01632e-06	3.70594e-08
2	0	0	1	0	16.1157	-0.107311	-0.107492	-0.000355503	1	3.98027e-06	3.82136e-08
2	0	0	1	0	16.2157	-0.112311	-0.11254	-0.000347049	1	3.94491e-06	3.90569e-08
2	0	0	1	0	16.3157	-0.117311	-0.117529	-0.000341538	1	3.9102e-06	4.01406e-08
2	0	0	1	0	16.4157	-0.122311	-0.122539	-0.000335873	1	3.8761e-06	4.11576e-08
2	0	0	1	0	16.5157	-0.127311	-0.127561	-0.00033038	1	3.84259e-06	4.21435e-08
2	0	0	1	0	16.6157	-0.132312	-0.132578	-0.000324059	1	3.8096e-06	4.2963e-08
2	0	0	1	0	16.7157	-0.137312	-0.137546	-0.000319859	1	3.77711e-06	4.39954e-08
2	0	0	1	0	16.8157	-0.142312	-0.142581	-0.000316545	1	3.74508e-06	4.51333e-08
2	0	0	1	0	16.9157	-0.147312	-0.147513	-0.000311666	1	3.7135e-06	4.59747e-08
2	0	0	1	0	17.0157	-0.152312	-0.152541	-0.000306876	1	3.68233e-06	4.68111e-08
2	0	0	1	0	17.1157	-0.157313	-0.157577	-0.000303025	1	3.65149e-06	4.77499e-08
2	0	0	1	0	17.2157	-0.162313	-0.162513	-0.000299208	1	3.62104e-06	4.86253e-08
2	0	0	1	0	17.3157	-0.167313	-0.167575	-0.000299224	1	3.5909e-06	5.01426e-08
2	0	0	1	0	17.4157	-0.172313	-0.172594	-0.000295675	1	3.56104e-06	5.10318e-08
2	0	0	1	0	17.5157	-0.177313	-0.177531	-0.000291249	1	3.53146e-06	5.17057e-08
2	0	0	1	0	17.6157	-0.182314	-0.182533	-0.000289447	1	3.50209e-06	5.28335e-08
2	0	0	1	0	17.7157	-0.187314	-0.187521	-0.000288422	1	3.47296e-06	5.40851e-08
2	0	0	1	0	17.8157	-0.192314	-0.192548	-0.000286356	1	3.444e-06	5.51371e-08
2	0	0	1	0	17.9157	-0.197314	-0.197544	-0.000285375	1	3.41518e-06	5.63742e-08
2	1	0	0	1	18.0051	-0.198214	-0.198367	-0.000177314	1	3.39326e-06	3.51733e-08
2	1	0	0	1	18.1051	-0.193214	-0.193419	-0.000153235	1	3.3773e-06	2.96385e-08
2	1	0	0	1	18.2051	-0.188214	-0.188475	-0.000137722	1	3.36313e-06	2.59572e-08
2	1	0	0	1	18.3051	-0.183214	-0.183409	-0.000128018	1	3.35019e-06	2.34797e-08
2	1	0	0	1	18.4051	-0.178213	-0.178372	-0.000117453	1	3.33825e-06	2.09503e-08
2	1	0	0	1	18.5051	-0.173213	-0.173395	-0.00011105	1	3.32715e-06	1.92555e-08
2	1	0	0	1	18.6051	-0.168213	-0.168376	-0.000103555	1	3.31679e-06	1.74361e-08
2	1	0	0	1	18.7051	-0.163213	-0.163426	-9.79325e-05	1	3.3071e-06	1.60047e-08
2	1	0	0	1	18.8051	-0.158213	-0.158436	-9.0911e-05	1	3.29801e-06	1.44036e-08
2	1	0	0	1	18.9051	-0.153212	-0.153353	-8.49459e-05	1	3.2895e-06	1.30267e-08
2	1	0	0	1	19.0051	-0.148212	-0.148395	-8.06377e-05	1	3.28146e-06	1.19662e-08
2	1	0	0	1	19.1051	-0.143212	-0.143436	-7.74705e-05	1	3.27391e-06	1.11121e-08
2	1	0	0	1	19.2051	-0.138212	-0.138363	-7.2348e-05	1	3.26679e-06	1.00103e-08
2	1	0	0	1	19.3051	-0.133212	-0.133369	-6.82199e-05	1	3.26009e-06	9.09845e-09
2	1	0	0	1	19.4051	-0.128211	-0.128412	-6.42667e-05	1	3.25378e-06	8.25263e-09
2	1	0	0	1	19.5051	-0.123211	-0.123413	-6.00309e-05	1	3.24785e-06	7.40858e-09
2	1	0	0	1	19.6051	-0.118211	-0.118424	-5.79183e-05	1	3.24226e-06	6.8589e-09
2	1	0	0	1	19.7051	-0.113211	-0.113428	-5.34758e-05	1	3.23702e-06	6.06568e-09
2	1	0	0	1	19.8051	-0.108211	-0.108376	-5.08615e-05	1	3.2321e-06	5.51216e-09
2	1	0	0	1	19.9051	-0.10321	-0.103388	-4.71963e-05	1	3.22749e-06	4.87953e-09
2	1	0	1	1	20.0053	-0.0982101	-0.0983641	-4.41068e-05	2	3.22315e-06	4.33853e-09
2	1	0	1	1	20.1053	-0.09321	-0.0933985	-4.19536e-05	2	3.2191e-06	3.9184e-09
2	1	0	1	1	20.2053	-0.0882097	-0.0884254	-3.83501e-05	2	3.21533e-06	3.39113e-09
2	1	0	1	1	20.3053	-0.0832095	-0.0834131	-3.53967e-05	2	3.21182e-06	2.95255e-09
2	1	0	1	1	20.4053	-0.0782093	-0.0784634	-3.42415e-05	2	3.20858e-06	2.68671e-09
2	1	0	1	1	20.5053	-0.0732091	-0.0734162	-3.0979e-05	2	3.2056e-06	2.27436e-09
2	1	0	1	1	20.6053	-0.0682089	-0.0683753	-2.8801e-05	2	3.20285e-06	1.96928e-09
2	1	0	1	1	20.7053	-0.0632087	-0.0634446	-2.59412e-05	2	3.20036e-06	1.64583e-09
2	1	0	1	1	20.8053	-0.0582085	-0.0583995	-2.40459e-05	2	3.19808e-06	1.40427e-09
2	1	0	1	1	20.9053	-0.0532083	-0.0533809	-2.19156e-05	2	3.19607e-06	1.16987e-09
2	1	0	1	1	21.0053	-0.0482081	-0.0484449	-1.91123e-05	2	3.19434e-06	9.25896e-10
2	1	0	1	1	21.1053	-0.0432079	-0.0433934	-1.63426e-05	2	3.19286e-06	7.09162e-10
2	1	0	1	1	21.2053	-0.0382077	-0.0383695	-1.27745e-05	2	3.19167e-06	4.90151e-10
2	1	0	1	1	21.3053	-0.0332075	-0.033423	-8.84074e-06	2	3.1908e-06	2.95484e-10
2	1	0	1	1	21.4053	-0.0282073	-0.0284277	-5.72835e-06	2	3.1903e-06	1.62843e-10
2	1	0	1	1	21.5053	-0.0232071	-0.0233868	-1.60381e-06	2	3.19023e-06	3.7508e-11
2	1	0	1	1	21.6053	-0.0182069	-0.0183904	3.23081e-06	2	3.19065e-06	-5.94159e-11
2	1	0	1	1	21.7053	-0.0132067	-0.0134831	9.40437e-06	2	3.19162e-06	-1.268e-10
2	1	0	1	1	21.8053	-0.00820648	-0.00841356	1.97325e-05	2	3.19336e-06	-1.6602e-10
2	1	0	1	1	21.9053	-0.00320627	-0.00341295	3.02708e-05	2	3.19609e-06	-1.03313e-10
2	1	0	1	1	22.0053	0.00179393	0.0015919	4.43172e-05	2	3.2001e-06	7.05485e-11
2	1	0	1	1	22.1053	0.00679413	0.00659781	6.29315e-05	2	3.20566e-06	4.1521e-10
2	1	0	1	1	22.2053	0.0117943	0.011609	8.60448e-05	2	3.21327e-06	9.98895e-10
2	1	0	1	1	22.3053	0.0167945	0.016617	0.000113896	2	3.22349e-06	1.89261e-09
2	1	0	1	1	22.4053	0.0217947	0.0216166	0.000152232	2	3.23703e-06	3.29073e-09
2	1	0	1	1	22.5053	0.0267949	0.0266617	0.000198969	2	3.25479e-06	5.30485e-09
2	1	0	1	1	22.6053	0.0317951	0.0316093	0.000255405	2	3.27772e-06	8.07318e-09
2	1	0	1	1	22.7053	0.0367953	0.0366311	0.000325077	2	3.30696e-06	1.19079e-08
2	1	0	1	1	22.8053	0.0417955	0.0415745	0.000404113	2	3.34365e-06	1.68008e-08
2	1	0	1	1	22.9053	0.0467957	0.0466514	0.000493831	2	3.38887e-06	2.30379e-08
2	1	0	1	1	23.0053	0.0517959	0.0516202	0.000595263	2	3.44358e-06	3.07276e-08
2	1	0	1	1	23.1053	0.0567961	0.0566717	0.000696633	2	3.50832e-06	3.94794e-08
2	1	0	1	1	23.2053	0.0617963	0.0616501	0.000794511	2	3.58319e-06	4.89816e-08
2	1	0	1	1	23.3053	0.0667965	0.066604	0.000888199	2	3.66776e-06	5.91576e-08
2	1	0	1	1	23.4053	0.0717967	0.071682	0.000969626	2	3.76109e-06	6.95047e-08
2	1	0	1	1	23.5053	0.0767969	0.0766381	0.00103444	2	3.86173e-06	7.92777e-08
2	1	0	1	1	23.6053	0.0817971	0.0815857	0.00107934	2	3.96791e-06	8.80589e-08
2	1	0	1	1	23.7053	0.0867973	0.0866012	0.00110557	2	4.0777e-06	9.57434e-08
2	1	0	1	1	23.8053	0.0917976	0.0916558	0.0011161	2	4.18932e-06	1.02297e-07
2	1	0	1	1	23.9053	0.0967978	0.0966692	0.00111091	2	4.30109e-06	1.07391e-07
2	1	0	1	1	24.0053	0.101798	0.101552	0.00109384	2	4.41171e-06	1.11082e-07
2	1	0	1	1	24.1053	0.106798	0.106621	0.00106912	2	4.52022e-06	1.13991e-07
2	1	0	1	1	24.2053	0.111798	0.111662	0.00103926	2	4.62598e-06	1.16046e-07
2	1	0	1	1	24.3053	0.116799	0.116599	0.00100679	2	4.72862e-06	1.17392e-07
2	1	0	1	1	24.4053	0.121799	0.121631	0.000973099	2	4.82793e-06	1.18359e-07
2	1	0	1	1	24.5053	0.126799	0.126561	0.000940085	2	4.92392e-06	1.18979e-07
2	1	0	1	1	24.6053	0.131799	0.131619	0.000909298	2	5.01677e-06	1.19681e-07
2	1	0	1	1	24.7053	0.136799	0.136669	0.000878929	2	5.10652e-06	1.20122e-07
2	1	0	1	1	24.8053	0.1418	0.141636	0.000851629	2	5.19342e-06	1.20622e-07
2	1	0	1	1	24.9053	0.1468	0.146594	0.000825815	2	5.27763e-06	1.21059e-07
2	1	0	0	1	25.0055	0.1518	0.151657	0.000803438	2	5.35951e-06	1.21847e-07
2	1	0	0	1	25.1055	0.1568	0.156646	0.000779705	2	5.43901e-06	1.22137e-07
2	1	0	0	1	25.2055	0.1618	0.16168	0.000760306	2	5.51637e-06	1.22926e-07
2	1	0	0	1	25.3055	0.166801	0.166644	0.000742174	2	5.59182e-06	1.23679e-07
2	1	0	0	1	25.4055	0.171801	0.171607	0.000725567	2	5.66555e-06	1.24512e-07
2	1	0	0	1	25.5055	0.176801	0.176638	0.000710213	2	5.73765e-06	1.2545e-07
2	1	0	0	1	25.6055	0.181801	0.181657	0.000695695	2	5.80825e-06	1.26378e-07
2	1	0	0	1	25.7055	0.186801	0.186643	0.000683611	2	5.87755e-06	1.27591e-07
2	1	0	0	1	25.8055	0.191802	0.191632	0.000670822	2	5.94561e-06	1.28551e-07
2	1	0	0	1	25.9055	0.196802	0.196665	0.000659041	2	6.01233e-06	1.2961e-07
2	1	0	0	1	26.0055	0.201802	0.201628	0.000657345	2	6.07835e-06	1.32539e-07
2	1	0	0	1	26.1055	0.206802	0.206656	0.000648905	2	6.14421e-06	1.341e-07
2	1	0	0	1	26.2055	0.211802	0.211687	0.000634274	2	6.20857e-06	1.34268e-07
2	1	0	0	1	26.3055	0.216803	0.216588	0.000625069	2	6.27172e-06	1.35383e-07
2	1	0	0	1	26.4055	0.221803	0.221666	0.000616361	2	6.33407e-06	1.36626e-07
2	1	0	0	1	26.5055	0.226803	0.226612	0.000609135	2	6.39572e-06	1.38037e-07
2	1	0	0	1	26.6055	0.231803	0.231622	0.000604425	2	6.4568e-06	1.39998e-07
2	1	0	0	1	26.7055	0.236803	0.236617	0.000599529	2	6.51731e-06	1.41859e-07
2	1	0	0	1	26.8055	0.241804	0.241636	0.000595705	2	6.57732e-06	1.43944e-07
2	1	0	0	1	26.9055	0.246804	0.246638	0.000590487	2	6.63692e-06	1.45636e-07
2	1	0	0	1	27.0055	0.251804	0.251608	0.000587003	2	6.69612e-06	1.47695e-07
2	1	0	0	1	27.1055	0.256804	0.256663	0.000585366	2	6.75504e-06	1.50242e-07
2	1	0	0	1	27.2055	0.261804	0.261693	0.000582365	2	6.81367e-06	1.52401e-07
2	1	0	0	1	27.3055	0.266805	0.266678	0.000580961	2	6.8721e-06	1.54929e-07
2	1	0	0	1	27.4055	0.271805	0.271663	0.000579608	2	6.93039e-06	1.57458e-07
2	1	0	0	1	27.5055	0.276805	0.276639	0.000578924	2	6.9886e-06	1.60153e-07
2	1	0	0	1	27.6055	0.281805	0.281669	0.000579726	2	7.04675e-06	1.63291e-07
2	1	0	0	1	27.7055	0.286805	0.286646	0.000578085	2	7.1049e-06	1.65705e-07
2	1	0	0	1	27.8055	0.291806	0.291624	0.000578504	2	7.16306e-06	1.68705e-07
2	1	0	0	1	27.9055	0.296806	0.296666	0.000578592	2	7.22121e-06	1.71648e-07
2	0	0	0	1	27.9951	0.298706	0.298565	0.000470626	2	7.27059e-06	1.40512e-07
2	0	0	0	1	28.0951	0.293706	0.293502	0.000438693	2	7.31578e-06	1.28758e-07
2	0	0	0	1	28.1951	0.288705	0.288472	0.000416771	2	7.35836e-06	1.20227e-07
2	0	0	0	1	28.2951	0.283705	0.283528	0.000400276	2	7.39891e-06	1.13489e-07
2	0	0	0	1	28.3951	0.278705	0.278526	0.000386067	2	7.4379e-06	1.0753e-07
2	0	0	0	1	28.4951	0.273705	0.27347	0.000371897	2	7.47557e-06	1.01703e-07
2	0	0	0	1	28.5951	0.268705	0.268535	0.000361972	2	7.51203e-06	9.72022e-08
2	0	0	0	1	28.6951	0.263704	0.263515	0.000352142	2	7.54749e-06	9.27945e-08
2	0	0	0	1	28.7951	0.258704	0.258496	0.000344626	2	7.58213e-06	8.90844e-08
2	0	0	0	1	28.8951	0.253704	0.253527	0.000342571	2	7.61622e-06	8.68512e-08
2	0	0	0	1	28.9951	0.248704	0.248485	0.00033301	2	7.6499e-06	8.27481e-08
2	0	0	0	1	29.0951	0.243704	0.243525	0.000322079	2	7.68236e-06	7.84344e-08
2	0	0	0	1	29.1951	0.238703	0.238496	0.000315844	2	7.71393e-06	7.53275e-08
2	0	0	0	1	29.2951	0.233703	0.233525	0.00030771	2	7.74489e-06	7.18579e-08
2	0	0	0	1	29.3951	0.228703	0.228532	0.000301073	2	7.77522e-06	6.88048e-08
2	0	0	0	1	29.4951	0.223703	0.223533	0.000297214	2	7.80499e-06	6.64372e-08
2	0	0	0	1	29.5951	0.218703	0.218466	0.000293119	2	7.83422e-06	6.40365e-08
2	0	0	0	1	29.6951	0.213702	0.213488	0.000287668	2	7.86291e-06	6.14139e-08
2	0	0	0	1	29.7951	0.208702	0.208476	0.000280285	2	7.89111e-06	5.84327e-08
2	0	0	0	1	29.8951	0.203702	0.20347	0.000275489	2	7.91873e-06	5.60538e-08
2	0	0	0	1	29.9951	0.198702	0.198482	0.000273972	2	7.94593e-06	5.43786e-08
2	0	0	0	1	30.0951	0.193702	0.193517	0.00026648	2	7.97272e-06	5.15684e-08
2	0	0	0	1	30.1951	0.188701	0.188434	0.000262628	2	7.99893e-06	4.94879e-08
2	0	0	0	1	30.2951	0.183701	0.18352	0.000256472	2	8.02468e-06	4.70677e-08
2	0	0	0	1	30.3951	0.178701	0.178465	0.000252121	2	8.04993e-06	4.49949e-08
2	0	0	0	1	30.4951	0.173701	0.173494	0.000247564	2	8.07468e-06	4.29509e-08
2	0	0	0	1	30.5951	0.168701	0.168519	0.000241904	2	8.09891e-06	4.07655e-08
2	0	0	0	1	30.6951	0.1637	0.163524	0.000235277	2	8.12261e-06	3.84734e-08
2	0	0	0	1	30.7951	0.1587	0.158429	0.000229746	2	8.14574e-06	3.63984e-08
2	0	0	0	1	30.8951	0.1537	0.153482	0.000225186	2	8.16829e-06	3.4562e-08
2	0	0	0	1	30.9951	0.1487	0.148511	0.00021918	2	8.19031e-06	3.25507e-08
2	0	0	1	1	31.0953	0.1437	0.143476	0.0002118	2	8.21168e-06	3.03881e-08
2	0	0	1	1	31.1953	0.138699	0.13849	0.000205554	2	8.23226e-06	2.84671e-08
2	0	0	1	1	31.2953	0.133699	0.133444	0.000194945	2	8.25206e-06	2.60142e-08
2	0	0	1	1	31.3953	0.128699	0.128487	0.000185572	2	8.27096e-06	2.38436e-08
2	0	0	1	1	31.4953	0.123699	0.123507	0.000176528	2	8.28883e-06	2.18025e-08
2	0	0	1	1	31.5953	0.118699	0.118482	0.00016354	2	8.30554e-06	1.93766e-08
2	0	0	1	1	31.6953	0.113698	0.113472	0.00014707	2	8.32086e-06	1.66884e-08
2	0	0	1	1	31.7953	0.108698	0.108513	0.00013106	2	8.33454e-06	1.42217e-08
2	0	0	1	1	31.8953	0.103698	0.103458	0.000108331	2	8.34623e-06	1.12078e-08
2	0	0	1	1	31.9953	0.0986978	0.0984586	8.23989e-05	2	8.3555e-06	8.11288e-09
2	0	0	1	1	32.0953	0.0936976	0.0935481	4.94079e-05	2	8.36185e-06	4.62202e-09
2	0	0	1	1	32.1953	0.0886974	0.0884861	8.87798e-06	2	8.3646e-06	7.85577e-10
2	0	0	1	1	32.2953	0.0836972	0.0835172	-3.92528e-05	2	8.36294e-06	-3.27828e-09
2	0	0	1	1	32.3953	0.078697	0.078523	-9.63286e-05	2	8.35594e-06	-7.56401e-09
2	0	0	1	1	32.4953	0.0736968	0.0735001	-0.000168369	2	8.34253e-06	-1.23752e-08
2	0	0	1	1	32.5953	0.0686966	0.0684889	-0.000249127	2	8.32157e-06	-1.70624e-08
2	0	0	1	1	32.6953	0.0636964	0.0635191	-0.000340803	2	8.29193e-06	-2.16475e-08
2	0	0	1	1	32.7953	0.0586962	0.0585153	-0.00044114	2	8.25257e-06	-2.58134e-08
2	0	0	1	1	32.8953	0.053696	0.0535083	-0.000547517	2	8.20284e-06	-2.92967e-08
2	0	0	1	1	32.9953	0.0486958	0.0484653	-0.000654573	2	8.14244e-06	-3.17241e-08
2	0	0	1	1	33.0953	0.0436956	0.0434594	-0.000752209	2	8.07178e-06	-3.26905e-08
2	0	0	1	1	33.1953	0.0386954	0.0384704	-0.000834666	2	7.99198e-06	-3.211e-08
2	0	0	1	1	33.2953	0.0336952	0.0334603	-0.000900383	2	7.90471e-06	-3.01271e-08
2	0	0	1	1	33.3953	0.028695	0.0284608	-0.000941194	2	7.81219e-06	-2.67871e-08
2	0	0	1	1	33.4953	0.0236948	0.0235206	-0.000959671	2	7.71674e-06	-2.2572e-08
2	0	0	1	1	33.5953	0.0186946	0.0184723	-0.000956132	2	7.6206e-06	-1.76619e-08
2	0	0	1	1	33.6953	0.0136944	0.0135151	-0.000935397	2	7.52572e-06	-1.2642e-08
2	0	0	1	1	33.7953	0.00869421	0.00849543	-0.000902303	2	7.43348e-06	-7.66545e-09
2	0	0	1	1	33.8953	0.003694	0.00350861	-0.00086369	2	7.34489e-06	-3.03035e-09
2	0	0	1	1	33.9953	-0.0013062	-0.00156727	-0.000822473	2	7.26036e-06	1.28904e-09
2	0	0	1	1	34.0953	-0.0063064	-0.0065382	-0.000778306	2	7.18011e-06	5.08872e-09
2	0	0	1	1	34.1953	-0.0113066	-0.0115377	-0.000738085	2	7.10409e-06	8.51584e-09
2	0	0	1	1	34.2953	-0.0163068	-0.0165373	-0.000699226	2	7.03205e-06	1.15633e-08
2	0	0	1	1	34.3953	-0.021307	-0.0216089	-0.000664016	2	6.9637e-06	1.43487e-08
2	0	0	1	1	34.4953	-0.0263072	-0.0265618	-0.000634027	2	6.89871e-06	1.68409e-08
2	0	0	1	1	34.5953	-0.0313074	-0.031519	-0.000603408	2	6.83677e-06	1.90188e-08
2	0	0	1	1	34.6953	-0.0363076	-0.0365418	-0.0005772	2	6.77757e-06	2.1092e-08
2	0	0	1	1	34.7953	-0.0413078	-0.0416029	-0.000553776	2	6.72082e-06	2.30387e-08
2	0	0	1	1	34.8953	-0.046308	-0.0465229	-0.000533065	2	6.6663e-06	2.47997e-08
2	0	0	1	1	34.9953	-0.0513082	-0.0515161	-0.00051411	2	6.61378e-06	2.64849e-08
2	0	0	1	1	35.0953	-0.0563084	-0.0565655	-0.000495981	2	6.56302e-06	2.80554e-08
2	0	0	1	1	35.1953	-0.0613086	-0.0615629	-0.000480437	2	6.51392e-06	2.95771e-08
2	0	0	1	1	35.2953	-0.0663089	-0.0665688	-0.000466652	2	6.46632e-06	3.10645e-08
2	0	0	1	1	35.3953	-0.071309	-0.0715567	-0.000453729	2	6.42011e-06	3.24673e-08
2	0	0	1	1	35.4953	-0.0763093	-0.0765435	-0.000442602	2	6.37514e-06	3.38783e-08
2	0	0	1	1	35.5953	-0.0813095	-0.0815537	-0.00043138	2	6.33133e-06	3.51807e-08
2	0	0	1	1	35.6953	-0.0863097	-0.0865787	-0.000419715	2	6.28859e-06	3.63384e-08
2	0	0	1	1	35.7953	-0.0913099	-0.0915613	-0.000410394	2	6.24685e-06	3.75762e-08
2	0	0	1	1	35.8953	-0.0963101	-0.0965608	-0.000402039	2	6.20603e-06	3.88212e-08
2	0	0	0	1	35.9955	-0.10131	-0.101498	-0.00039256	2	6.16601e-06	3.9844e-08
2	0	0	0	1	36.0955	-0.10631	-0.106532	-0.000384378	2	6.12684e-06	4.09487e-08
2	0	0	0	1	36.1955	-0.111311	-0.111565	-0.000377896	2	6.08844e-06	4.21598e-08
2	0	0	0	1	36.2955	-0.116311	-0.116547	-0.000371303	2	6.05073e-06	4.32744e-08
2	0	0	0	1	36.3955	-0.121311	-0.121539	-0.000366229	2	6.01367e-06	4.45112e-08
2	0	0	0	1	36.4955	-0.126311	-0.126514	-0.000358803	2	5.97724e-06	4.53934e-08
2	0	0	0	1	36.5955	-0.131311	-0.131539	-0.000354403	2	5.94137e-06	4.66176e-08
2	0	0	0	1	36.6955	-0.136312	-0.136531	-0.000348646	2	5.90607e-06	4.76009e-08
2	0	0	0	1	36.7955	-0.141312	-0.141549	-0.000342596	2	5.87128e-06	4.84942e-08
2	0	0	0	1	36.8955	-0.146312	-0.146533	-0.000338607	2	5.83697e-06	4.96172e-08
2	0	0	0	1	36.9955	-0.151312	-0.151505	-0.000333508	2	5.80312e-06	5.05281e-08
2	0	0	0	1	37.0955	-0.156313	-0.15657	-0.00033107	2	5.76966e-06	5.18358e-08
2	0	0	0	1	37.1955	-0.161313	-0.16153	-0.000326326	2	5.73662e-06	5.27112e-08
2	0	0	0	1	37.2955	-0.166313	-0.166582	-0.000323323	2	5.70395e-06	5.38598e-08
2	0	0	0	1	37.3955	-0.171313	-0.171591	-0.000320223	2	5.67161e-06	5.49474e-08
2	0	0	0	1	37.4955	-0.176313	-0.176545	-0.000317511	2	5.63954e-06	5.60551e-08
2	0	0	0	1	37.5955	-0.181314	-0.181567	-0.00031468	2	5.60776e-06	5.71354e-08
2	0	0	0	1	37.6955	-0.186314	-0.186581	-0.000312472	2	5.57622e-06	5.83014e-08
2	0	0	0	1	37.7955	-0.191314	-0.19157	-0.000311518	2	5.54488e-06	5.96776e-08
2	0	0	0	1	37.8955	-0.196314	-0.196538	-0.000307856	2	5.51372e-06	6.05055e-08
2	1	0	1	0	37.9849	-0.199214	-0.1994	-0.00020588	2	5.48756e-06	4.10526e-08
2	1	0	1	0	38.0849	-0.194214	-0.194428	-0.000176763	2	5.46904e-06	3.43678e-08
2	1	0	1	0	38.1849	-0.189214	-0.189407	-0.000161187	2	5.45252e-06	3.05299e-08
2	1	0	1	0	38.2849	-0.184214	-0.184405	-0.000149967	2	5.4373e-06	2.76546e-08
2	1	0	1	0	38.3849	-0.179213	-0.179433	-0.000139757	2	5.42311e-06	2.5077e-08
2	1	0	1	0	38.4849	-0.174213	-0.17438	-0.000131877	2	5.4098e-06	2.29968e-08
2	1	0	1	0	38.5849	-0.169213	-0.169475	-0.00012611	2	5.39725e-06	2.13725e-08
2	1	0	1	0	38.6849	-0.164213	-0.164376	-0.000118131	2	5.3854e-06	1.94179e-08
2	1	0	1	0	38.7849	-0.159213	-0.159393	-0.00011144	2	5.37414e-06	1.77628e-08
2	1	0	1	0	38.8849	-0.154212	-0.154442	-0.000106669	2	5.36348e-06	1.64741e-08
2	1	0	1	0	38.9849	-0.149212	-0.149404	-0.000102191	2	5.35332e-06	1.52678e-08
2	1	0	1	0	39.0849	-0.144212	-0.144433	-9.76551e-05	2	5.34366e-06	1.41046e-08
2	1	0	1	0	39.1849	-0.139212	-0.139432	-9.23012e-05	2	5.33447e-06	1.28698e-08
2	1	0	1	0	39.2849	-0.134212	-0.134407	-8.86536e-05	2	5.32571e-06	1.19157e-08
2	1	0	1	0	39.3849	-0.129211	-0.129435	-8.50731e-05	2	5.31737e-06	1.10115e-08
2	1	0	1	0	39.4849	-0.124211	-0.12439	-8.07101e-05	2	5.30943e-06	1.00395e-08
2	1	0	1	0	39.5849	-0.119211	-0.119397	-7.69742e-05	2	5.30185e-06	9.19048e-09
2	1	0	1	0	39.6849	-0.114211	-0.114414	-7.31976e-05	2	5.29465e-06	8.37486e-09
2	1	0	1	0	39.7849	-0.109211	-0.109438	-7.03572e-05	2	5.28779e-06	7.69977e-09
2	1	0	1	0	39.8849	-0.10421	-0.104405	-6.62486e-05	2	5.28125e-06	6.91666e-09
2	1	0	1	0	39.9849	-0.0992102	-0.0993988	-6.32652e-05	3	5.27503e-06	6.28848e-09
2	1	0	0	0	40.0851	-0.09421	-0.0943441	-6.13045e-05	3	5.26909e-06	5.78371e-09
2	1	0	0	0	40.1851	-0.0892098	-0.0893986	-5.81108e-05	3	5.26346e-06	5.19503e-09
2	1	0	0	0	40.2851	-0.0842096	-0.0844998	-5.48836e-05	3	5.25811e-06	4.63765e-09
2	1	0	0	0	40.3851	-0.0792094	-0.0794218	-5.35994e-05	3	5.25302e-06	4.25696e-09
2	1	0	0	0	40.4851	-0.0742092	-0.074453	-4.95703e-05	3	5.24821e-06	3.69066e-09
2	1	0	0	0	40.5851	-0.069209	-0.0694343	-4.6495e-05	3	5.24365e-06	3.22835e-09
2	1	0	0	0	40.6851	-0.0642088	-0.0644549	-4.43471e-05	3	5.23935e-06	2.85839e-09
2	1	0	0	0	40.7851	-0.0592086	-0.0594098	-4.30258e-05	3	5.2353e-06	2.55615e-09
2	1	0	0	0	40.8851	-0.0542084	-0.0544802	-3.9629e-05	3	5.23151e-06	2.159e-09
2	1	0	0	0	40.9851	-0.0492081	-0.0494404	-3.76224e-05	3	5.22805e-06	1.86007e-09
2	1	0	0	0	41.0851	-0.0442079	-0.044408	-3.41603e-05	3	5.22481e-06	1.51699e-09
2	1	0	0	0	41.1851	-0.0392077	-0.0393925	-2.96983e-05	3	5.22188e-06	1.16989e-09
2	1	0	0	0	41.2851	-0.0342075	-0.0344333	-2.80644e-05	3	5.21928e-06	9.6635e-10
2	1	0	0	0	41.3851	-0.0292073	-0.0294348	-2.37844e-05	3	5.21707e-06	7.0009e-10
2	1	0	0	0	41.4851	-0.0242071	-0.0243547	-1.91441e-05	3	5.21529e-06	4.66249e-10
2	1	0	0	0	41.5851	-0.0192069	-0.0193434	-1.22923e-05	3	5.21401e-06	2.37775e-10
2	1	0	0	0	41.6851	-0.0142067	-0.0143937	-6.62921e-06	3	5.21335e-06	9.5419e-11
2	1	0	0	0	41.7851	-0.00920652	-0.00936555	-7.76462e-08	3	5.21344e-06	7.27199e-13
2	1	0	0	0	41.8851	-0.00420631	-0.0043607	1.20663e-05	3	5.21448e-06	-5.26176e-11
2	1	0	0	0	41.9851	0.000793888	0.000706697	2.68952e-05	3	5.21677e-06	1.90068e-11
2	1	0	0	0	42.0851	0.00579409	0.00563415	4.38279e-05	3	5.22056e-06	2.46933e-10
2	1	0	0	0	42.1851	0.0107943	0.0106411	6.56817e-05	3	5.22627e-06	6.98927e-10
2	1	0	0	0	42.2851	0.0157945	0.0156237	9.28524e-05	3	5.23448e-06	1.4507e-09
2	1	0	0	0	42.3851	0.0207947	0.0206137	0.000126515	3	5.24583e-06	2.60794e-09
2	1	0	0	0	42.4851	0.0257949	0.0256239	0.000171955	3	5.26112e-06	4.40616e-09
2	1	0	0	0	42.5851	0.0307951	0.0306616	0.000225288	3	5.28128e-06	6.90768e-09
2	1	0	0	0	42.6851	0.0357953	0.0356293	0.00029015	3	5.30733e-06	1.03378e-08
2	1	0	0	0	42.7851	0.0407955	0.0405759	0.000366204	3	5.34039e-06	1.4859e-08
2	1	0	0	0	42.8851	0.0457957	0.045621	0.000450775	3	5.38147e-06	2.05648e-08
2	1	0	0	0	42.9851	0.0507959	0.0506544	0.000545398	3	5.43152e-06	2.76268e-08
2	1	0	0	0	43.0851	0.0557961	0.0555872	0.000642781	3	5.49121e-06	3.57304e-08
2	1	0	0	0	43.1851	0.0607963	0.0606567	0.000737811	3	5.56068e-06	4.47532e-08
2	1	0	0	0	43.2851	0.0657965	0.0656647	0.000832192	3	5.63976e-06	5.46456e-08
2	1	0	0	0	43.3851	0.0707967	0.070606	0.000914643	3	5.72762e-06	6.45793e-08
2	1	0	0	0	43.4851	0.0757969	0.0756384	0.000985078	3	5.82304e-06	7.45097e-08
2	1	0	0	0	43.5851	0.0807971	0.0805987	0.00103442	3	5.92447e-06	8.33727e-08
2	1	0	0	0	43.6851	0.0857973	0.0856195	0.00106777	3	6.03007e-06	9.14222e-08
2	1	0	0	0	43.7851	0.0907975	0.0906349	0.0010837	3	6.13808e-06	9.82212e-08
2	1	0	0	0	43.8851	0.0957977	0.0956578	0.00108254	3	6.24682e-06	1.03553e-07
2	1	0	0	0	43.9851	0.100798	0.100636	0.00107087	3	6.35492e-06	1.07768e-07
2	1	0	0	0	44.0851	0.105798	0.105627	0.00104923	3	6.46132e-06	1.10827e-07
2	1	0	0	0	44.1851	0.110798	0.110607	0.001023	3	6.56529e-06	1.1315e-07
2	1	0	0	0	44.2851	0.115798	0.115686	0.000991354	3	6.66633e-06	1.14685e-07
2	1	0	0	0	44.3851	0.120799	0.120601	0.000959593	3	6.7642e-06	1.15728e-07
2	1	0	0	0	44.4851	0.125799	0.125615	0.000925678	3	6.85882e-06	1.16279e-07
2	1	0	0	0	44.5851	0.130799	0.130615	0.000896264	3	6.95027e-06	1.17066e-07
2	1	0	0	0	44.6851	0.135799	0.135654	0.000865403	3	7.03863e-06	1.17396e-07
2	1	0	0	0	44.7851	0.1408	0.140641	0.000838234	3	7.1241e-06	1.1789e-07
2	1	0	0	0	44.8851	0.1458	0.145635	0.000811179	3	7.20685e-06	1.18136e-07
2	1	0	1	0	44.9853	0.1508	0.150607	0.000787214	3	7.28722e-06	1.1856e-07
2	1	0	1	0	45.0853	0.1558	0.155649	0.000764314	3	7.36514e-06	1.18965e-07
2	1	0	1	0	45.1853	0.1608	0.160633	0.000745207	3	7.4409e-06	1.19705e-07
2	1	0	1	0	45.2853	0.165801	0.165673	0.000724798	3	7.51468e-06	1.20079e-07
2	1	0	1	0	45.3853	0.170801	0.170616	0.000708717	3	7.58664e-06	1.20918e-07
2	1	0	1	0	45.4853	0.175801	0.17561	0.000691707	3	7.65693e-06	1.21471e-07
2	1	0	1	0	45.5853	0.180801	0.180713	0.000676547	3	7.72569e-06	1.22261e-07
2	1	0	1	0	45.6853	0.185801	0.185688	0.000663783	3	7.79301e-06	1.23256e-07
2	1	0	1	0	45.7853	0.190802	0.190676	0.00065021	3	7.85901e-06	1.23979e-07
2	1	0	1	0	45.8853	0.195802	0.195626	0.000640718	3	7.92382e-06	1.25341e-07
2	1	0	1	0	45.9853	0.200802	0.200681	0.000627482	3	7.98752e-06	1.25924e-07
2	1	0	1	0	46.0853	0.205802	0.205651	0.000618597	3	8.05022e-06	1.27215e-07
2	1	0	1	0	46.1853	0.210802	0.210589	0.000609532	3	8.11194e-06	1.28361e-07
2	1	0	1	0	46.2853	0.215803	0.215595	0.00060312	3	8.1728e-06	1.3003e-07
2	1	0	1	0	46.3853	0.220803	0.220602	0.000593569	3	8.23286e-06	1.30942e-07
2	1	0	1	0	46.4853	0.225803	0.225635	0.000587228	3	8.29218e-06	1.32499e-07
2	1	0	1	0	46.5853	0.230803	0.230628	0.000579434	3	8.35082e-06	1.33634e-07
2	1	0	1	0	46.6853	0.235803	0.235653	0.000574335	3	8.40882e-06	1.35343e-07
2	1	0	1	0	46.7853	0.240804	0.240568	0.000568384	3	8.46623e-06	1.36735e-07
2	1	0	1	0	46.8853	0.245804	0.245636	0.000563116	3	8.52314e-06	1.38321e-07
2	1	0	1	0	46.9853	0.250804	0.250658	0.0005591	3	8.57958e-06	1.40143e-07
2	1	0	1	0	47.0853	0.255804	0.255597	0.000554936	3	8.63561e-06	1.4184e-07
2	1	0	1	0	47.1853	0.260804	0.260619	0.000552008	3	8.69128e-06	1.43864e-07
2	1	0	1	0	47.2853	0.265805	0.265676	0.000547897	3	8.74663e-06	1.45563e-07
2	1	0	1	0	47.3853	0.270805	0.270664	0.000546851	3	8.80175e-06	1.48013e-07
2	1	0	1	0	47.4853	0.275805	0.275622	0.000545555	3	8.85665e-06	1.50367e-07
2	1	0	1	0	47.5853	0.280805	0.28062	0.000545497	3	8.91143e-06	1.53077e-07
2	1	0	1	0	47.6853	0.285805	0.285681	0.000542865	3	8.96613e-06	1.55086e-07
2	1	0	1	0	47.7853	0.290806	0.290615	0.000542902	3	9.0208e-06	1.57775e-07
2	1	0	1	0	47.8853	0.295806	0.295673	0.000544209	3	9.07551e-06	1.60908e-07
2	0	0	1	0	47.9749	0.299706	0.299535	0.000458226	3	9.12405e-06	1.37255e-07
2	0	0	1	0	48.0749	0.294706	0.294523	0.000415052	3	9.16703e-06	1.22242e-07
2	0	0	1	0	48.1749	0.289706	0.289474	0.000392583	3	9.20716e-06	1.13643e-07
2	0	0	1	0	48.2749	0.284705	0.284509	0.00037532	3	9.24542e-06	1.06782e-07
2	0	0	1	0	48.3749	0.279705	0.279513	0.00036318	3	9.28222e-06	1.01514e-07
2	0	0	1	0	48.4749	0.274705	0.274505	0.000352534	3	9.31777e-06	9.67723e-08
2	0	0	1	0	48.5749	0.269705	0.26951	0.000342321	3	9.35227e-06	9.22587e-08
2	0	0	1	0	48.6749	0.264705	0.264501	0.000334488	3	9.38582e-06	8.84724e-08
2	0	0	1	0	48.7749	0.259704	0.259531	0.000324586	3	9.41852e-06	8.424e-08
2	0	0	1	0	48.8749	0.254704	0.254489	0.000318273	3	9.45043e-06	8.09969e-08
2	0	0	1	0	48.9749	0.249704	0.249519	0.000311801	3	9.48165e-06	7.78002e-08
2	0	0	1	0	49.0749	0.244704	0.244516	0.000304223	3	9.51223e-06	7.43874e-08
2	0	0	1	0	49.1749	0.239703	0.239458	0.00029866	3	9.54217e-06	7.15168e-08
2	0	0	1	0	49.2749	0.234703	0.234469	0.000293679	3	9.57154e-06	6.88588e-08
2	0	0	1	0	49.3749	0.229703	0.229538	0.000286806	3	9.60035e-06	6.58329e-08
2	0	0	1	0	49.4749	0.224703	0.224501	0.000281168	3	9.62863e-06	6.31225e-08
2	0	0	1	0	49.5749	0.219703	0.219499	0.000277946	3	9.6564e-06	6.1009e-08
2	0	0	1	0	49.6749	0.214702	0.214509	0.000271965	3	9.68367e-06	5.8339e-08
2	0	0	1	0	49.7749	0.209702	0.209471	0.000266978	3	9.71046e-06	5.59241e-08
2	0	0	1	0	49.8749	0.204702	0.204468	0.000263348	3	9.73677e-06	5.38463e-08
2	0	0	1	0	49.9749	0.199702	0.199491	0.000257505	3	9.7626e-06	5.13699e-08
2	0	0	1	0	50.0749	0.194702	0.194469	0.000252927	3	9.78797e-06	4.91864e-08
2	0	0	1	0	50.1749	0.189701	0.189498	0.000247621	3	9.81287e-06	4.69236e-08
2	0	0	1	0	50.2749	0.184701	0.184456	0.000243982	3	9.83731e-06	4.50039e-08
2	0	0	1	0	50.3749	0.179701	0.179512	0.000237577	3	9.86128e-06	4.26478e-08
2	0	0	1	0	50.4749	0.174701	0.174517	0.000235289	3	9.88475e-06	4.1062e-08
2	0	0	1	0	50.5749	0.169701	0.169486	0.000229771	3	9.90773e-06	3.8943e-08
2	0	0	1	0	50.6749	0.1647	0.164458	0.000224447	3	9.9302e-06	3.69121e-08
2	0	0	1	0	50.7749	0.1597	0.159508	0.000218987	3	9.95215e-06	3.49302e-08
2	0	0	1	0	50.8749	0.1547	0.154497	0.000214343	3	9.97355e-06	3.31154e-08
2	0	0	1	0	50.9749	0.1497	0.149417	0.00020821	3	9.99433e-06	3.11101e-08
2	0	0	0	0	51.0751	0.1447	0.144482	0.000200232	3	1.00146e-05	2.89298e-08
2	0	0	0	0	51.1751	0.139699	0.139471	0.00019283	3	1.0034e-05	2.68942e-08
2	0	0	0	0	51.2751	0.134699	0.134498	0.000186178	3	1.00528e-05	2.50405e-08
2	0	0	0	0	51.3751	0.129699	0.129493	0.000176396	3	1.00707e-05	2.2842e-08
2	0	0	0	0	51.4751	0.124699	0.124458	0.000165291	3	1.00876e-05	2.05718e-08
2	0	0	0	0	51.5751	0.119699	0.119502	0.000154899	3	1.01034e-05	1.85107e-08
2	0	0	0	0	51.6751	0.114698	0.114498	0.000140743	3	1.01179e-05	1.61148e-08
2	0	0	0	0	51.7751	0.109698	0.109496	0.000123856	3	1.01309e-05	1.35617e-08
2	0	0	0	0	51.8751	0.104698	0.104447	0.000103753	3	1.0142e-05	1.08367e-08
2	0	0	0	0	51.9751	0.0996979	0.0994795	7.85482e-05	3	1.01509e-05	7.81394e-09
2	0	0	0	0	52.0751	0.0946977	0.0944736	4.79136e-05	3	1.0157e-05	4.52657e-09
2	0	0	0	0	52.1751	0.0896975	0.0894582	1.12732e-05	3	1.01598e-05	1.00848e-09
2	0	0	0	0	52.2751	0.0846973	0.084483	-3.42362e-05	3	1.01585e-05	-2.89238e-09
2	0	0	0	0	52.3751	0.0796971	0.0794994	-8.83692e-05	3	1.01522e-05	-7.02529e-09
2	0	0	0	0	52.4751	0.0746969	0.074468	-0.000155367	3	1.01399e-05	-1.15699e-08
2	0	0	0	0	52.5751	0.0696967	0.0695162	-0.000229976	3	1.01205e-05	-1.5987e-08
2	0	0	0	0	52.6751	0.0646964	0.0644509	-0.000317676	3	1.0093e-05	-2.04745e-08
2	0	0	0	0	52.7751	0.0596963	0.0595118	-0.000414313	3	1.00562e-05	-2.46565e-08
2	0	0	0	0	52.8751	0.0546961	0.0544826	-0.00051734	3	1.00094e-05	-2.8186e-08
2	0	0	0	0	52.9751	0.0496959	0.0494236	-0.000623774	3	9.95207e-06	-3.08292e-08
2	0	0	0	0	53.0751	0.0446957	0.0444633	-0.000723904	3	9.88443e-06	-3.21872e-08
2	0	0	0	0	53.1751	0.0396955	0.0394892	-0.000811337	3	9.80736e-06	-3.20391e-08
2	0	0	0	0	53.2751	0.0346953	0.0344674	-0.000882357	3	9.72227e-06	-3.04126e-08
2	0	0	0	0	53.3751	0.0296951	0.0294615	-0.000930919	3	9.63118e-06	-2.74263e-08
2	0	0	0	0	53.4751	0.0246949	0.0245341	-0.000958498	3	9.53637e-06	-2.35158e-08
2	0	0	0	0	53.5751	0.0196946	0.0195101	-0.000961043	3	9.44006e-06	-1.87501e-08
2	0	0	0	0	53.6751	0.0146944	0.0144841	-0.000945578	3	9.34432e-06	-1.36958e-08
2	0	0	0	0	53.7751	0.00969425	0.00948135	-0.000918916	3	9.2507e-06	-8.71256e-09
2	0	0	0	0	53.8751	0.00469405	0.00450618	-0.000882548	3	9.16034e-06	-3.97692e-09
2	0	0	0	0	53.9751	-0.000306156	-0.000509266	-0.000841166	3	9.07388e-06	4.28378e-10
2	0	0	0	0	54.0751	-0.00530636	-0.005565	-0.000799824	3	8.9915e-06	4.45102e-09
2	0	0	0	0	54.1751	-0.0103066	-0.0105359	-0.000759068	3	8.91336e-06	7.99748e-09
2	0	0	0	0	54.2751	-0.0153068	-0.0154963	-0.00072019	3	8.83924e-06	1.11602e-08
2	0	0	0	0	54.3751	-0.020307	-0.0205499	-0.000684258	3	8.76888e-06	1.40614e-08
2	0	0	0	0	54.4751	-0.0253072	-0.0255696	-0.000650362	3	8.70194e-06	1.66295e-08
2	0	0	0	0	54.5751	-0.0303074	-0.0305405	-0.000620862	3	8.6381e-06	1.89614e-08
2	0	0	0	0	54.6751	-0.0353076	-0.0354711	-0.000596256	3	8.57707e-06	2.11499e-08
2	0	0	0	0	54.7751	-0.0403078	-0.0405332	-0.000570224	3	8.51855e-06	2.3113e-08
2	0	0	0	0	54.8751	-0.045308	-0.0455349	-0.000549699	3	8.46233e-06	2.50305e-08
2	0	0	0	0	54.9751	-0.0503082	-0.0504973	-0.000530502	3	8.40819e-06	2.67889e-08
2	0	0	0	0	55.0751	-0.0553084	-0.0555456	-0.000511115	3	8.35589e-06	2.83902e-08
2	0	0	0	0	55.1751	-0.0603086	-0.0605537	-0.000496371	3	8.30526e-06	3.00571e-08
2	0	0	0	0	55.2751	-0.0653088	-0.0655257	-0.000481073	3	8.25615e-06	3.15226e-08
2	0	0	0	0	55.3751	-0.070309	-0.0705273	-0.000468245	3	8.20845e-06	3.30241e-08
2	0	0	0	0	55.4751	-0.0753092	-0.0755566	-0.000454933	3	8.16205e-06	3.43732e-08
2	0	0	0	0	55.5751	-0.0803094	-0.0805582	-0.000444406	3	8.11681e-06	3.58005e-08
2	0	0	0	0	55.6751	-0.0853096	-0.0855345	-0.000433429	3	8.07271e-06	3.70731e-08
2	0	0	0	0	55.7751	-0.0903098	-0.0905605	-0.000423795	3	8.02961e-06	3.83791e-08
2	0	0	0	0	55.8751	-0.09531	-0.0955696	-0.000416714	3	7.98746e-06	3.98252e-08
2	0	0	1	0	55.9753	-0.10031	-0.100588	-0.000406812	3	7.94613e-06	4.09204e-08
2	0	0	1	0	56.0753	-0.10531	-0.105531	-0.000397762	3	7.90569e-06	4.19761e-08
2	0	0	1	0	56.1753	-0.110311	-0.110531	-0.00039135	3	7.86602e-06	4.32564e-08
2	0	0	1	0	56.2753	-0.115311	-0.115529	-0.000384843	3	7.82707e-06	4.44603e-08
2	0	0	1	0	56.3753	-0.120311	-0.120564	-0.000378876	3	7.7888e-06	4.56789e-08
2	0	0	1	0	56.4753	-0.125311	-0.125576	-0.000370261	3	7.75116e-06	4.64961e-08
2	0	0	1	0	56.5753	-0.130311	-0.130508	-0.000366137	3	7.71413e-06	4.77838e-08
2	0	0	1	0	56.6753	-0.135312	-0.135574	-0.000359878	3	7.67768e-06	4.87903e-08
2	0	0	1	0	56.7753	-0.140312	-0.140554	-0.000354554	3	7.64177e-06	4.9834e-08
2	0	0	1	0	56.8753	-0.145312	-0.145568	-0.000348423	3	7.60635e-06	5.07194e-08
2	0	0	1	0	56.9753	-0.150312	-0.150499	-0.000344774	3	7.57142e-06	5.18881e-08
2	0	0	1	0	57.0753	-0.155312	-0.155523	-0.000340485	3	7.53693e-06	5.29532e-08
2	0	0	1	0	57.1753	-0.160313	-0.160553	-0.000336975	3	7.50286e-06	5.41024e-08
2	0	0	1	0	57.2753	-0.165313	-0.165594	-0.000332791	3	7.46919e-06	5.51082e-08
2	0	0	1	0	57.3753	-0.170313	-0.170536	-0.000329463	3	7.43585e-06	5.61854e-08
2	0	0	1	0	57.4753	-0.175313	-0.175559	-0.000326509	3	7.40285e-06	5.73217e-08
2	0	0	1	0	57.5753	-0.180313	-0.180549	-0.000324135	3	7.37014e-06	5.85224e-08
2	0	0	1	0	57.6753	-0.185314	-0.185568	-0.000321233	3	7.33768e-06	5.96105e-08
2	0	0	1	0	57.7753	-0.190314	-0.190518	-0.000319197	3	7.30545e-06	6.08125e-08
2	0	0	1	0	57.8753	-0.195314	-0.195539	-0.000317374	3	7.27341e-06	6.2059e-08
2	1	0	1	1	57.9692	-0.199989	-0.200219	-0.00030653	3	7.24349e-06	6.1373e-08
2	1	0	0	1	58.0647	-0.195214	-0.195431	-0.000188058	3	7.2246e-06	3.67523e-08
2	1	0	0	1	58.1647	-0.190214	-0.190419	-0.000171937	3	7.20709e-06	3.27401e-08
2	1	0	0	1	58.2647	-0.185214	-0.185394	-0.00015915	3	7.19094e-06	2.95055e-08
2	1	0	0	1	58.3647	-0.180213	-0.180393	-0.000147925	3	7.17586e-06	2.66847e-08
2	1	0	0	1	58.4647	-0.175213	-0.175392	-0.000141412	3	7.16168e-06	2.48025e-08
2	1	0	0	1	58.5647	-0.170213	-0.170445	-0.000134257	3	7.14827e-06	2.28834e-08
2	1	0	0	1	58.6647	-0.165213	-0.16539	-0.000128014	3	7.13557e-06	2.11723e-08
2	1	0	0	1	58.7647	-0.160213	-0.160404	-0.000121069	3	7.12348e-06	1.94199e-08
2	1	0	0	1	58.8647	-0.155212	-0.155349	-0.000116803	3	7.11197e-06	1.81452e-08
2	1	0	0	1	58.9647	-0.150212	-0.150445	-0.000110324	3	7.10102e-06	1.65976e-08
2	1	0	0	1	59.0647	-0.145212	-0.145434	-0.000105888	3	7.09055e-06	1.53997e-08
2	1	0	0	1	59.1647	-0.140212	-0.140387	-0.000100178	3	7.08056e-06	1.40637e-08
2	1	0	0	1	59.2647	-0.135212	-0.135422	-9.74414e-05	3	7.07102e-06	1.31957e-08
2	1	0	0	1	59.3647	-0.130211	-0.130421	-9.38874e-05	3	7.06189e-06	1.22449e-08
2	1	0	0	1	59.4647	-0.125211	-0.125405	-8.83374e-05	3	7.05317e-06	1.10779e-08
2	1	0	0	1	59.5647	-0.120211	-0.1204	-8.46827e-05	3	7.04485e-06	1.01958e-08
2	1	0	0	1	59.6647	-0.115211	-0.11539	-8.14396e-05	3	7.03688e-06	9.39729e-09
2	1	0	0	1	59.7647	-0.110211	-0.110411	-7.8306e-05	3	7.02928e-06	8.64587e-09
2	1	0	0	1	59.8647	-0.10521	-0.105427	-7.58684e-05	3	7.02199e-06	7.99855e-09
2	1	0	0	1	59.9647	-0.10021	-0.100355	-7.12528e-05	3	7.01505e-06	7.15058e-09
2	1	0	1	1	60.0649	-0.09521	-0.0954148	-6.75345e-05	3	7.00839e-06	6.4438e-09
2	1	0	1	1	60.1649	-0.0902098	-0.0904015	-6.53937e-05	3	7.00204e-06	5.91169e-09
2	1	0	1	1	60.2649	-0.0852096	-0.0853956	-6.11596e-05	3	6.99597e-06	5.22276e-09
2	1	0	1	1	60.3649	-0.0802094	-0.0804459	-5.84871e-05	3	6.99019e-06	4.70504e-09
2	1	0	1	1	60.4649	-0.0752092	-0.0754272	-5.73725e-05	3	6.98469e-06	4.32745e-09
2	1	0	1	1	60.5649	-0.070209	-0.0704266	-5.46293e-05	3	6.97944e-06	3.84735e-09
2	1	0	1	1	60.6649	-0.0652088	-0.0654292	-5.13561e-05	3	6.97445e-06	3.36019e-09
2	1	0	0	1	60.6966	-0.0635837	-0.063857	-4.97204e-05	3	6.97293e-06	3.175e-09