File: AutoAnalysis Examples/EC/C003C-0ppb-A_C01.mpt
EC-Lab ASCII FILE
Nb header lines : 59

Cyclic Voltammetry

Run on channel : 1 (SN 22398)
User :
CE vs. WE compliance from -10 V to 10 V
Electrode connection : standard
Ewe ctrl range : min = -1.00 V, max = 1.00 V
Safety Limits :
	Ewe min = -2.00 V
	Ewe max = 2.00 V
	|I| = 50.000 mA
	for t > 10 ms
Acquisition started on : 11/21/2018 10:25:16
Technique started on : 11/21/2018 10:25:16
Saved on :
	File : C003C-0ppb-A_C01.mpr
	Directory : \\ECCOMPUTER\Users\Lab User\Google Drive\Electrochemical Data\EC-Lab\Data\FREDsense\Tim\2018.11.21 - EC comparison to High Throughput\
	Host : 172.16.1.30
Device : SP-50 (SN 0301030103010301)
Address : USB
EC-Lab for windows v11.02 (software)
Internet server v11.02 (firmware)
Command interpretor v11.02 (firmware)
Electrode material : Au/Pd
Initial state :
Electrolyte : NaCl (0.2M)
Comments : Fe(CN)63-/Fe(CN)64- 5.10-3 M
Reference electrode : SCE Saturated Calomel Electrode (0.241 V)
Electrode surface area : 0.001 cm²
Characteristic mass : 0.001 g
Equivalent Weight : 0.000 g/eq.
Density : 0.000 g/cm3
Cycle Definition : Charge/Discharge alternance
Ei (V)              -0.100
vs.                 Ref
dE/dt               50.000
dE/dt unit          mV/s
E1 (V)              0.300
vs.                 Ref
Step percent        50
N                   10
E range min (V)     -1.000
E range max (V)     1.000
I Range             Auto
I Range min         Unset
I Range max         Unset
I Range init        Unset
Bandwidth           5
E2 (V)              -0.200
vs.                 Ref
nc cycles           2
Reverse Scan        1
Ef (V)              0.000
vs.                 Eoc

mode	ox/red	error	control changes	counter inc.	time/s	control/V	Ewe/V	<I>/mA	cycle number	(Q-Qo)/C	P/W
2	1	0	1	0	0.000000000000000E+000	-0.0984933	-0.0987497	-7.49617e-05	1	0.0000000E+000	7.40245e-09
2	1	0	0	0	0.111	-0.0929431	-0.0930141	9.84234e-06	1	1.74041e-09	-9.15476e-10
2	1	0	1	0	0.2265	-0.0871679	-0.0872665	3.83114e-05	1	7.04708e-09	-3.3433e-09
2	1	0	1	0	0.3265	-0.0821677	-0.0822796	4.53081e-05	1	1.15086e-08	-3.72794e-09
2	1	0	1	0	0.4265	-0.0771675	-0.0772769	4.90299e-05	1	1.64576e-08	-3.78888e-09
2	1	0	1	0	0.5265	-0.0721673	-0.072271	5.21635e-05	1	2.17415e-08	-3.76991e-09
2	1	0	1	0	0.6265	-0.0671671	-0.0672598	5.38169e-05	1	2.72934e-08	-3.61971e-09
2	1	0	1	0	0.7265	-0.0621669	-0.0622422	5.63958e-05	1	3.31085e-08	-3.5102e-09
2	1	0	1	0	0.8265	-0.0571667	-0.0572798	5.96954e-05	1	3.91497e-08	-3.41934e-09
2	1	0	1	0	0.9265	-0.0521664	-0.0522898	6.38518e-05	1	4.54286e-08	-3.33879e-09
2	1	0	1	0	1.0265	-0.0471662	-0.0472351	6.29262e-05	1	5.19408e-08	-2.97232e-09
2	1	0	1	0	1.1265	-0.042166	-0.0422514	6.71902e-05	1	5.86879e-08	-2.83888e-09
2	1	0	1	0	1.2265	-0.0371658	-0.0372657	7.02585e-05	1	6.57357e-08	-2.61823e-09
2	1	0	1	0	1.3265	-0.0321656	-0.0322884	7.33921e-05	1	7.31074e-08	-2.36971e-09
2	1	0	1	0	1.4265	-0.0271654	-0.0272666	7.72057e-05	1	8.09054e-08	-2.10514e-09
2	1	0	1	0	1.5265	-0.0221652	-0.0222925	8.29536e-05	1	8.9199e-08	-1.84924e-09
2	1	0	1	0	1.6265	-0.017165	-0.0172664	9.08193e-05	1	9.81737e-08	-1.56812e-09
2	1	0	1	0	1.7265	-0.0121648	-0.0122934	0.000101257	1	1.08015e-07	-1.24479e-09
2	1	0	1	0	1.8265	-0.00716461	-0.00724612	0.000114682	1	1.18997e-07	-8.30996e-10
2	1	0	1	0	1.9265	-0.00216441	-0.00226989	0.000132482	1	1.31518e-07	-3.00719e-10
2	1	0	1	0	2.0265	0.00283579	0.002771	0.000155955	1	1.46185e-07	4.32152e-10
2	1	0	1	0	2.1265	0.00783599	0.00775995	0.000189529	1	1.636e-07	1.47074e-09
2	1	0	1	0	2.2265	0.0128362	0.0127616	0.000231802	1	1.84712e-07	2.95817e-09
2	1	0	1	0	2.3265	0.0178364	0.0177368	0.000286207	1	2.10715e-07	5.0764e-09
2	1	0	1	0	2.4265	0.0228366	0.0227777	0.000357796	1	2.43086e-07	8.14976e-09
2	1	0	1	0	2.5265	0.0278368	0.0277316	0.000450864	1	2.83662e-07	1.25032e-08
2	1	0	1	0	2.6265	0.032837	0.0327534	0.000563397	1	3.34445e-07	1.84532e-08
2	1	0	1	0	2.7265	0.0378372	0.0376851	0.000701475	1	3.97718e-07	2.64352e-08
2	1	0	1	0	2.8265	0.0428374	0.0427324	0.000857986	1	4.75764e-07	3.66638e-08
2	1	0	1	0	2.9265	0.0478376	0.0477436	0.00103494	1	5.70615e-07	4.94116e-08
2	1	0	1	0	3.0265	0.0528378	0.0527559	0.00122728	1	6.83982e-07	6.47463e-08
2	1	0	1	0	3.1265	0.057838	0.0577628	0.00141665	1	8.16439e-07	8.18295e-08
2	1	0	1	0	3.2265	0.0628382	0.0628005	0.00159965	1	9.67641e-07	1.00459e-07
2	1	0	1	0	3.3265	0.0678384	0.0677079	0.00176327	1	1.13627e-06	1.19387e-07
2	1	0	1	0	3.4265	0.0728386	0.0727318	0.00189466	1	1.31968e-06	1.37802e-07
2	1	0	1	0	3.5265	0.0778388	0.0778352	0.00199235	1	1.51458e-06	1.55075e-07
2	1	0	1	0	3.6265	0.082839	0.0827139	0.0020515	1	1.71728e-06	1.69688e-07
2	1	0	1	0	3.7265	0.0878392	0.0877188	0.0020748	1	1.92408e-06	1.81999e-07
2	1	0	1	0	3.8265	0.0928394	0.0927321	0.00206912	1	2.13168e-06	1.91874e-07
2	1	0	1	0	3.9265	0.0978396	0.0977963	0.00203927	1	2.33737e-06	1.99433e-07
2	1	0	1	0	4.0265	0.10284	0.102742	0.00199262	1	2.53916e-06	2.04725e-07
2	1	0	1	0	4.1265	0.10784	0.107766	0.00193492	1	2.73575e-06	2.08518e-07
2	1	0	1	0	4.2265	0.11284	0.112754	0.0018753	1	2.92639e-06	2.11447e-07
2	1	0	1	0	4.3265	0.11784	0.117709	0.00181031	1	3.11082e-06	2.1309e-07
2	1	0	1	0	4.4265	0.122841	0.122707	0.00174956	1	3.28899e-06	2.14684e-07
2	1	0	1	0	4.5265	0.127841	0.127772	0.00169159	1	3.46114e-06	2.16138e-07
2	1	0	1	0	4.6265	0.132841	0.132785	0.00163533	1	3.62758e-06	2.17147e-07
2	1	0	1	0	4.7265	0.137841	0.137744	0.00158316	1	3.78869e-06	2.18071e-07
2	1	0	1	0	4.8265	0.142841	0.142694	0.0015359	1	3.94492e-06	2.19162e-07
2	1	0	0	0	4.9267	0.147842	0.147798	0.00149452	1	4.09692e-06	2.20888e-07
2	1	0	0	0	5.0267	0.152842	0.152749	0.00145846	1	4.24453e-06	2.22778e-07
2	1	0	0	0	5.1267	0.157842	0.157702	0.00141875	1	4.38844e-06	2.2374e-07
2	1	0	0	0	5.2267	0.162842	0.162754	0.00138629	1	4.52892e-06	2.25625e-07
2	1	0	0	0	5.3267	0.167842	0.167721	0.00135659	1	4.66624e-06	2.27528e-07
2	1	0	0	0	5.4267	0.172843	0.17277	0.00132973	1	4.80067e-06	2.29738e-07
2	1	0	0	0	5.5267	0.177843	0.177723	0.00130244	1	4.93241e-06	2.31474e-07
2	1	0	0	0	5.6267	0.182843	0.182789	0.00127878	1	5.06166e-06	2.33747e-07
2	1	0	0	0	5.7267	0.187843	0.187716	0.00125589	1	5.18862e-06	2.3575e-07
2	1	0	0	0	5.8267	0.192843	0.192686	0.00123644	1	5.31346e-06	2.38244e-07
2	1	0	0	0	5.9267	0.197844	0.197731	0.00121808	1	5.43635e-06	2.40852e-07
2	1	0	0	0	6.0267	0.202844	0.202714	0.00120203	1	5.55746e-06	2.43667e-07
2	1	0	0	0	6.1267	0.207844	0.207705	0.00118529	1	5.67697e-06	2.4619e-07
2	1	0	0	0	6.2267	0.212844	0.212748	0.00117185	1	5.79495e-06	2.49309e-07
2	1	0	0	0	6.3267	0.217844	0.217704	0.0011583	1	5.91152e-06	2.52166e-07
2	1	0	0	0	6.4267	0.222845	0.22269	0.00114445	1	6.02677e-06	2.54857e-07
2	1	0	0	0	6.5267	0.227845	0.227721	0.00113308	1	6.1408e-06	2.58025e-07
2	1	0	0	0	6.6267	0.232845	0.232661	0.00112077	1	6.25367e-06	2.60761e-07
2	1	0	0	0	6.7267	0.237845	0.237723	0.00111154	1	6.36545e-06	2.64239e-07
2	1	0	0	0	6.8267	0.242845	0.242694	0.0011014	1	6.4762e-06	2.67302e-07
2	1	0	0	0	6.9267	0.247846	0.247722	0.00109063	1	6.586e-06	2.70175e-07
2	1	0	0	0	7.0267	0.252846	0.252688	0.00108314	1	6.69488e-06	2.73696e-07
2	1	0	0	0	7.1267	0.257846	0.25777	0.00107556	1	6.803e-06	2.77248e-07
2	1	0	0	0	7.2267	0.262846	0.262704	0.00106719	1	6.91033e-06	2.80355e-07
2	1	0	0	0	7.3267	0.267846	0.267743	0.001062	1	7.01696e-06	2.84344e-07
2	1	0	0	0	7.4267	0.272847	0.272728	0.00105541	1	7.12295e-06	2.87841e-07
2	1	0	0	0	7.5267	0.277847	0.277707	0.00104809	1	7.22837e-06	2.91063e-07
2	1	0	0	0	7.6267	0.282847	0.282717	0.00104443	1	7.33328e-06	2.95278e-07
2	1	0	0	0	7.7267	0.287847	0.287739	0.00104028	1	7.43771e-06	2.99329e-07
2	1	0	0	0	7.8267	0.292847	0.292743	0.00103797	1	7.54172e-06	3.03859e-07
2	1	0	0	0	7.9267	0.297848	0.297756	0.00103229	1	7.64535e-06	3.0737e-07
2	0	0	1	0	8.0053	0.298248	0.29807	0.000898562	1	7.72234e-06	2.67834e-07
2	0	0	1	0	8.1053	0.293247	0.293111	0.000848775	1	7.80922e-06	2.48786e-07
2	0	0	1	0	8.2053	0.288247	0.288109	0.000814489	1	7.89199e-06	2.34661e-07
2	0	0	1	0	8.3053	0.283247	0.283127	0.00079069	1	7.97192e-06	2.23866e-07
2	0	0	1	0	8.4053	0.278247	0.278088	0.000767082	1	8.0497e-06	2.13317e-07
2	0	0	1	0	8.5053	0.273247	0.273125	0.000743745	1	8.125e-06	2.03135e-07
2	0	0	1	0	8.6053	0.268246	0.268038	0.000725288	1	8.19814e-06	1.94405e-07
2	0	0	1	0	8.7053	0.263246	0.26309	0.000709959	1	8.26961e-06	1.86783e-07
2	0	0	1	0	8.8053	0.258246	0.258101	0.000696665	1	8.33963e-06	1.7981e-07
2	0	0	1	0	8.9053	0.253246	0.253076	0.000681447	1	8.40824e-06	1.72458e-07
2	0	0	1	0	9.0053	0.248246	0.248082	0.000670768	1	8.47565e-06	1.66405e-07
2	0	0	1	0	9.1053	0.243246	0.2431	0.000658255	1	8.5419e-06	1.60022e-07
2	0	0	1	0	9.2053	0.238245	0.238098	0.000648481	1	8.60704e-06	1.54402e-07
2	0	0	1	0	9.3053	0.233245	0.2331	0.000637279	1	8.67113e-06	1.4855e-07
2	0	0	1	0	9.4053	0.228245	0.228056	0.000627735	1	8.73423e-06	1.43159e-07
2	0	0	1	0	9.5053	0.223245	0.223098	0.000619535	1	8.79638e-06	1.38217e-07
2	0	0	1	0	9.6053	0.218244	0.218119	0.000608868	1	8.85762e-06	1.32806e-07
2	0	0	1	0	9.7053	0.213244	0.213088	0.00060196	1	8.91795e-06	1.2827e-07
2	0	0	1	0	9.8053	0.208244	0.208074	0.000593076	1	8.97743e-06	1.23404e-07
2	0	0	1	0	9.9053	0.203244	0.203086	0.000584707	1	9.03605e-06	1.18746e-07
2	0	0	1	0	10.0053	0.198244	0.198034	0.000574531	1	9.0938e-06	1.13777e-07
2	0	0	1	0	10.1053	0.193243	0.193085	0.000567416	1	9.15071e-06	1.09559e-07
2	0	0	1	0	10.2053	0.188243	0.188144	0.000558118	1	9.20675e-06	1.05007e-07
2	0	0	1	0	10.3053	0.183243	0.1831	0.0005485	1	9.26195e-06	1.0043e-07
2	0	0	1	0	10.4053	0.178243	0.178083	0.000540226	1	9.3163e-06	9.62049e-08
2	0	0	1	0	10.5053	0.173243	0.173093	0.000532526	1	9.36976e-06	9.21764e-08
2	0	0	1	0	10.6053	0.168242	0.168121	0.000523941	1	9.42237e-06	8.80854e-08
2	0	0	1	0	10.7053	0.163242	0.163025	0.000513481	1	9.47407e-06	8.371e-08
2	0	0	1	0	10.8053	0.158242	0.158115	0.000500983	1	9.52465e-06	7.92131e-08
2	0	0	1	0	10.9053	0.153242	0.153098	0.000493563	1	9.57425e-06	7.55633e-08
2	0	0	1	0	11.0053	0.148242	0.148035	0.000482896	1	9.62281e-06	7.14852e-08
2	0	0	0	0	11.1055	0.143241	0.143096	0.00047113	1	9.67037e-06	6.7417e-08
2	0	0	0	0	11.2055	0.138241	0.138095	0.00045729	1	9.71657e-06	6.31494e-08
2	0	0	0	0	11.3055	0.133241	0.133125	0.000443351	1	9.7614e-06	5.90211e-08
2	0	0	0	0	11.4055	0.128241	0.128111	0.00042668	1	9.80468e-06	5.46622e-08
2	0	0	0	0	11.5055	0.123241	0.123126	0.000407458	1	9.84617e-06	5.01686e-08
2	0	0	0	0	11.6055	0.11824	0.118043	0.000383504	1	9.8856e-06	4.52698e-08
2	0	0	0	0	11.7055	0.11324	0.113167	0.000358478	1	9.9226e-06	4.05679e-08
2	0	0	0	0	11.8055	0.10824	0.108127	0.000326649	1	9.95671e-06	3.53197e-08
2	0	0	0	0	11.9055	0.10324	0.103119	0.000287714	1	9.9873e-06	2.96689e-08
2	0	0	0	0	12.0055	0.0982396	0.0980825	0.000240403	1	1.00136e-05	2.35793e-08
2	0	0	0	0	12.1055	0.0932394	0.0931455	0.000182697	1	1.00346e-05	1.70174e-08
2	0	0	0	0	12.2055	0.0882392	0.0881089	0.000111099	1	1.00492e-05	9.78884e-09
2	0	0	0	0	12.3055	0.083239	0.0830786	2.28767e-05	1	1.00558e-05	1.90056e-09
2	0	0	0	0	12.4055	0.0782388	0.0781056	-8.51967e-05	1	1.00526e-05	-6.65434e-09
2	0	0	0	0	12.5055	0.0732386	0.0730731	-0.00021148	1	1.00378e-05	-1.54535e-08
2	0	0	0	0	12.6055	0.0682384	0.0681054	-0.000360122	1	1.00092e-05	-2.45263e-08
2	0	0	0	0	12.7055	0.0632382	0.0630698	-0.000529057	1	9.96471e-06	-3.33675e-08
2	0	0	0	0	12.8055	0.058238	0.0580618	-0.000712677	1	9.90256e-06	-4.13793e-08
2	0	0	0	0	12.9055	0.0532378	0.0531396	-0.000902439	1	9.8216e-06	-4.79553e-08
2	0	0	0	0	13.0055	0.0482376	0.0481157	-0.00109399	1	9.72143e-06	-5.2638e-08
2	0	0	0	0	13.1055	0.0432374	0.0431352	-0.00126538	1	9.60309e-06	-5.45826e-08
2	0	0	0	0	13.2055	0.0382372	0.0380604	-0.00141039	1	9.46886e-06	-5.36801e-08
2	0	0	0	0	13.3055	0.033237	0.0330895	-0.00151466	1	9.32201e-06	-5.01194e-08
2	0	0	0	0	13.4055	0.0282368	0.0280953	-0.00157895	1	9.16676e-06	-4.43609e-08
2	0	0	0	0	13.5055	0.0232366	0.0231296	-0.00159965	1	9.00741e-06	-3.69992e-08
2	0	0	0	0	13.6055	0.0182364	0.0181417	-0.00158089	1	8.848e-06	-2.86802e-08
2	0	0	0	0	13.7055	0.0132362	0.0131178	-0.00153545	1	8.69182e-06	-2.01418e-08
2	0	0	0	0	13.8055	0.00823601	0.00812357	-0.0014698	1	8.54122e-06	-1.194e-08
2	0	0	0	0	13.9055	0.00323581	0.00313356	-0.00139555	1	8.39765e-06	-4.37304e-09
2	0	0	0	0	14.0055	-0.00176439	-0.00185962	-0.00131901	1	8.26173e-06	2.45287e-09
2	0	0	0	0	14.1055	-0.0067646	-0.00685811	-0.00124097	1	8.13363e-06	8.5107e-09
2	0	0	0	0	14.2055	-0.0117648	-0.0119647	-0.00116645	1	8.01309e-06	1.39563e-08
2	0	0	0	0	14.3055	-0.016765	-0.0168625	-0.00109851	1	7.89959e-06	1.85237e-08
2	0	0	0	0	14.4055	-0.0217652	-0.0218833	-0.00103889	1	7.79256e-06	2.27343e-08
2	0	0	0	0	14.5055	-0.0267654	-0.0269475	-0.000982261	1	7.69139e-06	2.64695e-08
2	0	0	0	0	14.6055	-0.0317656	-0.0319184	-0.00093253	1	7.59549e-06	2.97649e-08
2	0	0	0	0	14.7055	-0.0367658	-0.0369211	-0.0008877	1	7.50434e-06	3.27749e-08
2	0	0	0	0	14.8055	-0.041766	-0.0417998	-0.000846342	1	7.41744e-06	3.5377e-08
2	0	0	0	0	14.9055	-0.0467662	-0.0469022	-0.00081189	1	7.33438e-06	3.80794e-08
2	0	0	0	0	15.0055	-0.0517664	-0.0519124	-0.000777242	1	7.25478e-06	4.03485e-08
2	0	0	0	0	15.1055	-0.0567666	-0.0569108	-0.000749831	1	7.17826e-06	4.26735e-08
2	0	0	0	0	15.2055	-0.0617668	-0.0618807	-0.000721292	1	7.10463e-06	4.46341e-08
2	0	0	0	0	15.3055	-0.066767	-0.0669046	-0.000697101	1	7.03358e-06	4.66393e-08
2	0	0	0	0	15.4055	-0.0717672	-0.0719381	-0.000673735	1	6.96491e-06	4.84672e-08
2	0	0	0	0	15.5055	-0.0767675	-0.0769027	-0.000653349	1	6.89843e-06	5.02443e-08
2	0	0	0	0	15.6055	-0.0817677	-0.0819224	-0.000633938	1	6.83396e-06	5.19337e-08
2	0	0	0	0	15.7055	-0.0867679	-0.0869304	-0.000615139	1	6.77136e-06	5.34742e-08
2	0	0	0	0	15.8055	-0.091768	-0.0919469	-0.000598347	1	6.71049e-06	5.50162e-08
2	0	0	0	0	15.9055	-0.0967683	-0.0969104	-0.000584108	1	6.65121e-06	5.66062e-08
2	0	0	1	0	16.0057	-0.101768	-0.101895	-0.000567474	1	6.59333e-06	5.78228e-08
2	0	0	1	0	16.1057	-0.106769	-0.106896	-0.000556111	1	6.53694e-06	5.94459e-08
2	0	0	1	0	16.2057	-0.111769	-0.11189	-0.000542732	1	6.48184e-06	6.07263e-08
2	0	0	1	0	16.3057	-0.116769	-0.116853	-0.000531424	1	6.42796e-06	6.20987e-08
2	0	0	1	0	16.4057	-0.121769	-0.121892	-0.000519903	1	6.37521e-06	6.33722e-08
2	0	0	1	0	16.5057	-0.126769	-0.12688	-0.000508688	1	6.32353e-06	6.45425e-08
2	0	0	1	0	16.6057	-0.13177	-0.131811	-0.000500056	1	6.27284e-06	6.59128e-08
2	0	0	1	0	16.7057	-0.13677	-0.1369	-0.000492021	1	6.22311e-06	6.73578e-08
2	0	0	1	0	16.8057	-0.14177	-0.141904	-0.000481991	1	6.17428e-06	6.83966e-08
2	0	0	1	0	16.9057	-0.14677	-0.146927	-0.000474629	1	6.1263e-06	6.97358e-08
2	0	0	1	0	17.0057	-0.151771	-0.151874	-0.000464981	1	6.07913e-06	7.06183e-08
2	0	0	1	0	17.1057	-0.156771	-0.156898	-0.000458671	1	6.03268e-06	7.19644e-08
2	0	0	1	0	17.2057	-0.161771	-0.16192	-0.000451519	1	5.98697e-06	7.31102e-08
2	0	0	1	0	17.3057	-0.166771	-0.166915	-0.000445872	1	5.94193e-06	7.44226e-08
2	0	0	1	0	17.4057	-0.171771	-0.17193	-0.000438972	1	5.8975e-06	7.54726e-08
2	0	0	1	0	17.5057	-0.176772	-0.17687	-0.000432654	1	5.85366e-06	7.65236e-08
2	0	0	1	0	17.6057	-0.181772	-0.181896	-0.000428508	1	5.81033e-06	7.79441e-08
2	0	0	1	0	17.7057	-0.186772	-0.186875	-0.000423363	1	5.76751e-06	7.91158e-08
2	0	0	1	0	17.8057	-0.191772	-0.191864	-0.000419544	1	5.72515e-06	8.04952e-08
2	0	0	1	0	17.9057	-0.196772	-0.196907	-0.000415695	1	5.68319e-06	8.18531e-08
2	1	0	1	1	17.9961	-0.198722	-0.198783	-0.000298134	1	5.64842e-06	5.9264e-08
2	1	0	1	1	18.0961	-0.193722	-0.193799	-0.000267408	1	5.62061e-06	5.18234e-08
2	1	0	1	1	18.1961	-0.188722	-0.188811	-0.000250176	1	5.59503e-06	4.72359e-08
2	1	0	1	1	18.2961	-0.183722	-0.183788	-0.000236842	1	5.57102e-06	4.35286e-08
2	1	0	1	1	18.3961	-0.178722	-0.1788	-0.000222548	1	5.54829e-06	3.97916e-08
2	1	0	1	1	18.4961	-0.173721	-0.173828	-0.000212174	1	5.52666e-06	3.68818e-08
2	1	0	1	1	18.5961	-0.168721	-0.168803	-0.000203385	1	5.506e-06	3.43319e-08
2	1	0	1	1	18.6961	-0.163721	-0.163781	-0.000196762	1	5.48625e-06	3.22259e-08
2	1	0	1	1	18.7961	-0.158721	-0.158829	-0.000187252	1	5.46732e-06	2.97411e-08
2	1	0	1	1	18.8961	-0.153721	-0.153761	-0.000180112	1	5.44915e-06	2.76942e-08
2	1	0	1	1	18.9961	-0.14872	-0.148844	-0.000173382	1	5.43167e-06	2.58069e-08
2	1	0	1	1	19.0961	-0.14372	-0.143799	-0.000167557	1	5.41485e-06	2.40944e-08
2	1	0	1	1	19.1961	-0.13872	-0.138796	-0.000162579	1	5.39868e-06	2.25653e-08
2	1	0	1	1	19.2961	-0.13372	-0.133793	-0.000154284	1	5.38309e-06	2.06422e-08
2	1	0	1	1	19.3961	-0.12872	-0.12878	-0.000150598	1	5.36807e-06	1.93939e-08
2	1	0	1	1	19.4961	-0.123719	-0.123861	-0.00014353	1	5.3536e-06	1.77778e-08
2	1	0	1	1	19.5961	-0.118719	-0.118821	-0.000138805	1	5.33964e-06	1.6493e-08
2	1	0	1	1	19.6961	-0.113719	-0.113746	-0.000134619	1	5.32619e-06	1.53124e-08
2	1	0	1	1	19.7961	-0.108719	-0.10882	-0.000131019	1	5.31317e-06	1.42575e-08
2	1	0	1	1	19.8961	-0.103719	-0.103802	-0.000126507	1	5.30062e-06	1.31318e-08
2	1	0	1	1	19.9962	-0.0987227	-0.0988787	-0.000122313	2	5.28848e-06	1.20942e-08
2	1	0	0	1	20.0963	-0.0937181	-0.0938339	-0.00011678	2	5.27676e-06	1.09579e-08
2	1	0	0	1	20.1963	-0.0887179	-0.0888577	-0.000112836	2	5.26546e-06	1.00263e-08
2	1	0	0	1	20.2963	-0.0837177	-0.0838062	-0.000110486	2	5.25456e-06	9.25943e-09
2	1	0	0	1	20.3963	-0.0787175	-0.0788575	-0.000105669	2	5.24405e-06	8.33282e-09
2	1	0	0	1	20.4963	-0.0737173	-0.0737986	-0.000102144	2	5.23391e-06	7.53805e-09
2	1	0	0	1	20.5963	-0.0687171	-0.0688023	-9.77028e-05	2	5.22416e-06	6.72217e-09
2	1	0	0	1	20.6963	-0.0637169	-0.0638419	-9.46081e-05	2	5.21481e-06	6.03997e-09
2	1	0	0	1	20.7963	-0.0587167	-0.0588318	-8.98848e-05	2	5.20584e-06	5.28808e-09
2	1	0	0	1	20.8963	-0.0537165	-0.0537951	-8.5739e-05	2	5.19726e-06	4.61234e-09
2	1	0	0	1	20.9963	-0.0487163	-0.0488348	-8.25365e-05	2	5.18914e-06	4.03066e-09
2	1	0	0	1	21.0963	-0.0437161	-0.0438162	-7.75553e-05	2	5.18145e-06	3.39818e-09
2	1	0	0	1	21.1963	-0.0387159	-0.0387732	-7.19806e-05	2	5.17425e-06	2.79091e-09
2	1	0	0	1	21.2963	-0.0337157	-0.033833	-6.60278e-05	2	5.16758e-06	2.23392e-09
2	1	0	0	1	21.3963	-0.0287155	-0.0288133	-5.91548e-05	2	5.16152e-06	1.70444e-09
2	1	0	0	1	21.4963	-0.0237153	-0.0237872	-5.37372e-05	2	5.15621e-06	1.27826e-09
2	1	0	0	1	21.5963	-0.0187151	-0.0188195	-4.1346e-05	2	5.15175e-06	7.7811e-10
2	1	0	0	1	21.6963	-0.0137149	-0.0138136	-2.93097e-05	2	5.14834e-06	4.04873e-10
2	1	0	0	1	21.7963	-0.00871468	-0.00885115	-1.55371e-05	2	5.14627e-06	1.37522e-10
2	1	0	0	1	21.8963	-0.00371447	-0.00376785	3.5364e-06	2	5.14589e-06	-1.33246e-11
2	1	0	0	1	21.9963	0.00128573	0.00117551	2.94742e-05	2	5.14775e-06	3.46473e-11
2	1	0	0	1	22.0963	0.00628593	0.00624715	6.03967e-05	2	5.15237e-06	3.77307e-10
2	1	0	0	1	22.1963	0.0112861	0.0112372	0.000102181	2	5.16061e-06	1.14822e-09
2	1	0	0	1	22.2963	0.0162863	0.0162494	0.000154111	2	5.17355e-06	2.50421e-09
2	1	0	0	1	22.3963	0.0212865	0.0211875	0.00022175	2	5.19247e-06	4.69832e-09
2	1	0	0	1	22.4963	0.0262867	0.0261679	0.000306657	2	5.21893e-06	8.02458e-09
2	1	0	0	1	22.5963	0.0312869	0.0312565	0.000409373	2	5.25476e-06	1.27956e-08
2	1	0	0	1	22.6963	0.0362871	0.0362094	0.000532261	2	5.30192e-06	1.92729e-08
2	1	0	0	1	22.7963	0.0412873	0.0412122	0.000677484	2	5.3625e-06	2.79206e-08
2	1	0	0	1	22.8963	0.0462875	0.0462032	0.000838828	2	5.43839e-06	3.87566e-08
2	1	0	0	1	22.9963	0.0512877	0.0512219	0.00101504	2	5.53122e-06	5.19924e-08
2	1	0	0	1	23.0963	0.0562879	0.0562617	0.00119535	2	5.64198e-06	6.72522e-08
2	1	0	0	1	23.1963	0.0612881	0.0611934	0.00137223	2	5.77065e-06	8.39712e-08
2	1	0	0	1	23.2963	0.0662883	0.0662343	0.00153553	2	5.91641e-06	1.01705e-07
2	1	0	0	1	23.3963	0.0712885	0.071237	0.00167517	2	6.07736e-06	1.19334e-07
2	1	0	0	1	23.4963	0.0762887	0.0762185	0.00178475	2	6.25081e-06	1.36031e-07
2	1	0	0	1	23.5963	0.0812889	0.0812011	0.00185991	2	6.43355e-06	1.51027e-07
2	1	0	0	1	23.6963	0.0862891	0.0862356	0.00190042	2	6.62205e-06	1.63884e-07
2	1	0	0	1	23.7963	0.0912893	0.0912585	0.00191163	2	6.81311e-06	1.74453e-07
2	1	0	0	1	23.8963	0.0962896	0.0961733	0.00189502	2	7.0038e-06	1.8225e-07
2	1	0	0	1	23.9963	0.10129	0.101173	0.00185961	2	7.19185e-06	1.88142e-07
2	1	0	0	1	24.0963	0.10629	0.106226	0.00181189	2	7.37566e-06	1.92471e-07
2	1	0	0	1	24.1963	0.11129	0.111175	0.00175434	2	7.55419e-06	1.95039e-07
2	1	0	0	1	24.2963	0.11629	0.11615	0.0016942	2	7.72687e-06	1.96782e-07
2	1	0	0	1	24.3963	0.121291	0.121157	0.00163512	2	7.89348e-06	1.98107e-07
2	1	0	0	1	24.4963	0.126291	0.126175	0.00157465	2	8.05411e-06	1.98681e-07
2	1	0	0	1	24.5963	0.131291	0.13121	0.00151887	2	8.20901e-06	1.99292e-07
2	1	0	0	1	24.6963	0.136291	0.136124	0.0014677	2	8.35846e-06	1.9979e-07
2	1	0	0	1	24.7963	0.141291	0.141148	0.0014184	2	8.50287e-06	2.00204e-07
2	1	0	0	1	24.8963	0.146292	0.146188	0.00137363	2	8.64259e-06	2.00809e-07
2	1	0	1	1	24.9965	0.151292	0.151118	0.00133028	2	8.77826e-06	2.01029e-07
2	1	0	1	1	25.0965	0.156292	0.156189	0.00129354	2	8.90979e-06	2.02036e-07
2	1	0	1	1	25.1965	0.161292	0.161198	0.00126087	2	9.03771e-06	2.03249e-07
2	1	0	1	1	25.2965	0.166292	0.166211	0.00122841	2	9.16232e-06	2.04176e-07
2	1	0	1	1	25.3965	0.171293	0.171205	0.00119946	2	9.2839e-06	2.05352e-07
2	1	0	1	1	25.4965	0.176293	0.176126	0.00117166	2	9.40269e-06	2.06359e-07
2	1	0	1	1	25.5965	0.181293	0.181202	0.00114768	2	9.5189e-06	2.07962e-07
2	1	0	1	1	25.6965	0.186293	0.186202	0.00112562	2	9.63271e-06	2.09593e-07
2	1	0	1	1	25.7965	0.191293	0.191186	0.00110422	2	9.74429e-06	2.11111e-07
2	1	0	1	1	25.8965	0.196294	0.196214	0.00108306	2	9.85384e-06	2.12511e-07
2	1	0	1	1	25.9965	0.201294	0.201139	0.0010652	2	9.9615e-06	2.14254e-07
2	1	0	1	1	26.0965	0.206294	0.206222	0.00104865	2	1.00675e-05	2.16254e-07
2	1	0	1	1	26.1965	0.211294	0.211163	0.00103301	2	1.01718e-05	2.18132e-07
2	1	0	1	1	26.2965	0.216294	0.216201	0.00101893	2	1.02746e-05	2.20293e-07
2	1	0	1	1	26.3965	0.221295	0.221206	0.00100559	2	1.03761e-05	2.22444e-07
2	1	0	1	1	26.4965	0.226295	0.226155	0.000992932	2	1.04762e-05	2.24557e-07
2	1	0	1	1	26.5965	0.231295	0.231238	0.000981561	2	1.05751e-05	2.26975e-07
2	1	0	1	1	26.6965	0.236295	0.236141	0.000968934	2	1.06728e-05	2.28805e-07
2	1	0	1	1	26.7965	0.241295	0.241158	0.000957335	2	1.07695e-05	2.30869e-07
2	1	0	1	1	26.8965	0.246296	0.246173	0.000949176	2	1.08651e-05	2.33662e-07
2	1	0	1	1	26.9965	0.251296	0.251229	0.000939403	2	1.09598e-05	2.36005e-07
2	1	0	1	1	27.0965	0.256296	0.256238	0.000931532	2	1.10536e-05	2.38694e-07
2	1	0	1	1	27.1965	0.261296	0.261194	0.000923894	2	1.11466e-05	2.41316e-07
2	1	0	1	1	27.2965	0.266296	0.266215	0.000917622	2	1.12389e-05	2.44285e-07
2	1	0	1	1	27.3965	0.271297	0.271205	0.000910194	2	1.13306e-05	2.46849e-07
2	1	0	1	1	27.4965	0.276297	0.276206	0.000905059	2	1.14217e-05	2.49982e-07
2	1	0	1	1	27.5965	0.281297	0.281188	0.000901281	2	1.15123e-05	2.5343e-07
2	1	0	1	1	27.6965	0.286297	0.28617	0.000898889	2	1.16025e-05	2.57235e-07
2	1	0	1	1	27.7965	0.291297	0.291181	0.000893881	2	1.16924e-05	2.60281e-07
2	1	0	1	1	27.8965	0.296298	0.296178	0.000892367	2	1.1782e-05	2.643e-07
2	0	0	1	1	27.9761	0.299748	0.299608	0.000791082	2	1.18527e-05	2.37014e-07
2	0	0	1	1	28.0761	0.294748	0.294548	0.000735163	2	1.19282e-05	2.16541e-07
2	0	0	1	1	28.1761	0.289747	0.289574	0.000706728	2	1.2e-05	2.0465e-07
2	0	0	1	1	28.2761	0.284747	0.284618	0.00068314	2	1.20693e-05	1.94434e-07
2	0	0	1	1	28.3761	0.279747	0.279598	0.000664988	2	1.21365e-05	1.85929e-07
2	0	0	1	1	28.4761	0.274747	0.274563	0.000649209	2	1.2202e-05	1.78248e-07
2	0	0	1	1	28.5761	0.269747	0.2696	0.000635669	2	1.22659e-05	1.71377e-07
2	0	0	1	1	28.6761	0.264746	0.264573	0.000621568	2	1.23285e-05	1.6445e-07
2	0	0	1	1	28.7761	0.259746	0.259659	0.00061074	2	1.23899e-05	1.58584e-07
2	0	0	1	1	28.8761	0.254746	0.254588	0.000599029	2	1.24501e-05	1.52505e-07
2	0	0	1	1	28.9761	0.249746	0.249627	0.000589266	2	1.25092e-05	1.47097e-07
2	0	0	1	1	29.0761	0.244746	0.244556	0.000579169	2	1.25674e-05	1.41639e-07
2	0	0	1	1	29.1761	0.239745	0.239583	0.000569721	2	1.26246e-05	1.36495e-07
2	0	0	1	1	29.2761	0.234745	0.234584	0.000561294	2	1.26809e-05	1.31671e-07
2	0	0	1	1	29.3761	0.229745	0.229598	0.000552942	2	1.27364e-05	1.26955e-07
2	0	0	1	1	29.4761	0.224745	0.22459	0.000543195	2	1.27911e-05	1.21996e-07
2	0	0	1	1	29.5761	0.219745	0.219583	0.000537149	2	1.28449e-05	1.17949e-07
2	0	0	1	1	29.6761	0.214744	0.214604	0.000528688	2	1.2898e-05	1.13458e-07
2	0	0	1	1	29.7761	0.209744	0.209564	0.000521013	2	1.29502e-05	1.09186e-07
2	0	0	1	1	29.8761	0.204744	0.204613	0.000513274	2	1.30018e-05	1.05023e-07
2	0	0	1	1	29.9761	0.199744	0.199579	0.00050574	2	1.30525e-05	1.00935e-07
2	0	0	1	1	30.0761	0.194744	0.194613	0.000499263	2	1.31025e-05	9.71632e-08
2	0	0	1	1	30.1761	0.189743	0.18963	0.000490818	2	1.31517e-05	9.30736e-08
2	0	0	1	1	30.2761	0.184743	0.18466	0.000482675	2	1.32002e-05	8.91306e-08
2	0	0	1	1	30.3761	0.179743	0.179644	0.000474443	2	1.32479e-05	8.5231e-08
2	0	0	1	1	30.4761	0.174743	0.17462	0.000468636	2	1.32948e-05	8.18333e-08
2	0	0	1	1	30.5761	0.169742	0.169628	0.000459173	2	1.33409e-05	7.78887e-08
2	0	0	1	1	30.6761	0.164742	0.16457	0.000451305	2	1.33862e-05	7.42715e-08
2	0	0	1	1	30.7761	0.159742	0.159598	0.000442027	2	1.34307e-05	7.05467e-08
2	0	0	1	1	30.8761	0.154742	0.154638	0.000434281	2	1.34742e-05	6.71563e-08
2	0	0	1	1	30.9761	0.149742	0.149573	0.000424085	2	1.35168e-05	6.34316e-08
2	0	0	0	1	31.0763	0.144741	0.144588	0.000412134	2	1.35585e-05	5.95896e-08
2	0	0	0	1	31.1763	0.139741	0.139554	0.000399568	2	1.3599e-05	5.57611e-08
2	0	0	0	1	31.2763	0.134741	0.134585	0.000388559	2	1.36382e-05	5.22942e-08
2	0	0	0	1	31.3763	0.129741	0.129607	0.000373282	2	1.36761e-05	4.83801e-08
2	0	0	0	1	31.4763	0.124741	0.124584	0.000356549	2	1.37123e-05	4.44201e-08
2	0	0	0	1	31.5763	0.119741	0.119582	0.000336857	2	1.37468e-05	4.0282e-08
2	0	0	0	1	31.6763	0.11474	0.114597	0.000313615	2	1.37791e-05	3.59394e-08
2	0	0	0	1	31.7763	0.10974	0.10962	0.000285637	2	1.38088e-05	3.13115e-08
2	0	0	0	1	31.8763	0.10474	0.104582	0.000250523	2	1.38353e-05	2.62002e-08
2	0	0	0	1	31.9763	0.0997397	0.0996081	0.000207189	2	1.38581e-05	2.06377e-08
2	0	0	0	1	32.0763	0.0947395	0.0946117	0.000156489	2	1.38762e-05	1.48057e-08
2	0	0	0	1	32.1763	0.0897393	0.0896471	9.34354e-05	2	1.38885e-05	8.37621e-09
2	0	0	0	1	32.2763	0.0847391	0.0845819	1.45993e-05	2	1.38936e-05	1.23484e-09
2	0	0	0	1	32.3763	0.0797389	0.0795876	-8.1565e-05	2	1.38901e-05	-6.49157e-09
2	0	0	0	1	32.4763	0.0747387	0.0746517	-0.000197504	2	1.3876e-05	-1.4744e-08
2	0	0	0	1	32.5763	0.0697385	0.06965	-0.00033233	2	1.38494e-05	-2.31468e-08
2	0	0	0	1	32.6763	0.0647383	0.0646632	-0.000488491	2	1.38081e-05	-3.15874e-08
2	0	0	0	1	32.7763	0.0597381	0.059599	-0.000661734	2	1.37503e-05	-3.94387e-08
2	0	0	0	1	32.8763	0.0547379	0.0546492	-0.000847639	2	1.36745e-05	-4.63228e-08
2	0	0	0	1	32.9763	0.0497377	0.0495596	-0.00103872	2	1.35799e-05	-5.14787e-08
2	0	0	0	1	33.0763	0.0447375	0.0446056	-0.00121745	2	1.34667e-05	-5.43053e-08
2	0	0	0	1	33.1763	0.0397373	0.0396548	-0.00137357	2	1.33366e-05	-5.44689e-08
2	0	0	0	1	33.2763	0.0347371	0.0346341	-0.0014996	2	1.31922e-05	-5.19373e-08
2	0	0	0	1	33.3763	0.0297369	0.0296377	-0.00158579	2	1.30373e-05	-4.69992e-08
2	0	0	0	1	33.4763	0.0247367	0.0245862	-0.00162932	2	1.28761e-05	-4.00589e-08
2	0	0	0	1	33.5763	0.0197365	0.019592	-0.00163079	2	1.27126e-05	-3.19504e-08
2	0	0	0	1	33.6763	0.0147363	0.0146073	-0.00159929	2	1.25505e-05	-2.33613e-08
2	0	0	0	1	33.7763	0.00973607	0.00959714	-0.00154644	2	1.23927e-05	-1.48414e-08
2	0	0	0	1	33.8763	0.00473587	0.00459653	-0.00147872	2	1.22411e-05	-6.79699e-09
2	0	0	0	1	33.9763	-0.000264333	-0.00038287	-0.00140318	2	1.20967e-05	5.37235e-10
2	0	0	0	1	34.0763	-0.00526454	-0.0054174	-0.00132542	2	1.19598e-05	7.18033e-09
2	0	0	0	1	34.1763	-0.0102647	-0.0104244	-0.0012525	2	1.18307e-05	1.30565e-08
2	0	0	0	1	34.2763	-0.0152649	-0.0154186	-0.00118182	2	1.17087e-05	1.8222e-08
2	0	0	0	1	34.3763	-0.0202651	-0.0204351	-0.00111739	2	1.15935e-05	2.28341e-08
2	0	0	0	1	34.4763	-0.0252654	-0.0254728	-0.00105878	2	1.14844e-05	2.69703e-08
2	0	0	0	1	34.5763	-0.0302656	-0.0304067	-0.00100699	2	1.13809e-05	3.06191e-08
2	0	0	0	1	34.6763	-0.0352658	-0.035437	-0.000959844	2	1.12824e-05	3.40139e-08
2	0	0	0	1	34.7763	-0.040266	-0.0404174	-0.000917392	2	1.11883e-05	3.70786e-08
2	0	0	0	1	34.8763	-0.0452662	-0.0453905	-0.000877401	2	1.10983e-05	3.98256e-08
2	0	0	0	1	34.9763	-0.0502664	-0.0504208	-0.000844249	2	1.1012e-05	4.25677e-08
2	0	0	0	1	35.0763	-0.0552666	-0.0554436	-0.000812909	2	1.09289e-05	4.50706e-08
2	0	0	0	1	35.1763	-0.0602668	-0.0604093	-0.000785057	2	1.08489e-05	4.74247e-08
2	0	0	0	1	35.2763	-0.065267	-0.0654067	-0.000757482	2	1.07715e-05	4.95444e-08
2	0	0	0	1	35.3763	-0.0702672	-0.0704147	-0.000734217	2	1.06967e-05	5.16997e-08
2	0	0	0	1	35.4763	-0.0752674	-0.0754079	-0.000710752	2	1.06243e-05	5.35963e-08
2	0	0	0	1	35.5763	-0.0802676	-0.0803841	-0.000690959	2	1.05539e-05	5.55422e-08
2	0	0	0	1	35.6763	-0.0852678	-0.0854282	-0.0006717	2	1.04856e-05	5.73822e-08
2	0	0	0	1	35.7763	-0.090268	-0.0904278	-0.000652646	2	1.0419e-05	5.90173e-08
2	0	0	0	1	35.8763	-0.0952682	-0.0954125	-0.00063875	2	1.03542e-05	6.09447e-08
2	0	0	1	1	35.9765	-0.100268	-0.100377	-0.000621842	2	1.02908e-05	6.24187e-08
2	0	0	1	1	36.0765	-0.105269	-0.105466	-0.000608877	2	1.02291e-05	6.42156e-08
2	0	0	1	1	36.1765	-0.110269	-0.110435	-0.000593589	2	1.01687e-05	6.55532e-08
2	0	0	1	1	36.2765	-0.115269	-0.115399	-0.000582066	2	1.01096e-05	6.71699e-08
2	0	0	1	1	36.3765	-0.120269	-0.120357	-0.000570058	2	1.00516e-05	6.86106e-08
2	0	0	1	1	36.4765	-0.125269	-0.125412	-0.000559412	2	9.99485e-06	7.01569e-08
2	0	0	1	1	36.5765	-0.13027	-0.130334	-0.000549462	2	9.93913e-06	7.16136e-08
2	0	0	1	1	36.6765	-0.13527	-0.135343	-0.000539237	2	9.88446e-06	7.2982e-08
2	0	0	1	1	36.7765	-0.14027	-0.140376	-0.000530495	2	9.83075e-06	7.44685e-08
2	0	0	1	1	36.8765	-0.14527	-0.145391	-0.000520696	2	9.77796e-06	7.57046e-08
2	0	0	1	1	36.9765	-0.15027	-0.150375	-0.000511365	2	9.72606e-06	7.68962e-08
2	0	0	1	1	37.0765	-0.155271	-0.155442	-0.000503827	2	9.67496e-06	7.83159e-08
2	0	0	1	1	37.1765	-0.160271	-0.160416	-0.000496748	2	9.62467e-06	7.96863e-08
2	0	0	1	1	37.2765	-0.165271	-0.165424	-0.000488417	2	9.57513e-06	8.0796e-08
2	0	0	1	1	37.3765	-0.170271	-0.170421	-0.000482639	2	9.52627e-06	8.22517e-08
2	0	0	1	1	37.4765	-0.175271	-0.17538	-0.000476879	2	9.47805e-06	8.3635e-08
2	0	0	1	1	37.5765	-0.180272	-0.180436	-0.000472025	2	9.43044e-06	8.51701e-08
2	0	0	1	1	37.6765	-0.185272	-0.185398	-0.000465251	2	9.38337e-06	8.62566e-08
2	0	0	1	1	37.7765	-0.190272	-0.190363	-0.000460344	2	9.33683e-06	8.76322e-08
2	0	0	1	1	37.8765	-0.195272	-0.195432	-0.000455926	2	9.29073e-06	8.91026e-08
2	1	0	0	0	37.9714	-0.199997	-0.199905	-0.000437414	2	9.24741e-06	8.74412e-08
2	1	0	1	0	38.0669	-0.195222	-0.195297	-0.000311092	2	9.21639e-06	6.07555e-08
2	1	0	1	0	38.1669	-0.190222	-0.190333	-0.000292854	2	9.18662e-06	5.57398e-08
2	1	0	1	0	38.2669	-0.185222	-0.185271	-0.000277388	2	9.15854e-06	5.13918e-08
2	1	0	1	0	38.3669	-0.180222	-0.18032	-0.000262898	2	9.13183e-06	4.74058e-08
2	1	0	1	0	38.4669	-0.175221	-0.175275	-0.00025331	2	9.1063e-06	4.43989e-08
2	1	0	1	0	38.5669	-0.170221	-0.170312	-0.00024407	2	9.08179e-06	4.15681e-08
2	1	0	1	0	38.6669	-0.165221	-0.165306	-0.000234856	2	9.05825e-06	3.88233e-08
2	1	0	1	0	38.7669	-0.160221	-0.160303	-0.000226189	2	9.03554e-06	3.62587e-08
2	1	0	1	0	38.8669	-0.155221	-0.155276	-0.000218058	2	9.01364e-06	3.38591e-08
2	1	0	1	0	38.9669	-0.15022	-0.150288	-0.000212368	2	8.99253e-06	3.19164e-08
2	1	0	1	0	39.0669	-0.14522	-0.145317	-0.000204997	2	8.9721e-06	2.97895e-08
2	1	0	1	0	39.1669	-0.14022	-0.140266	-0.000197522	2	8.95235e-06	2.77057e-08
2	1	0	1	0	39.2669	-0.13522	-0.135315	-0.00019035	2	8.93324e-06	2.57572e-08
2	1	0	1	0	39.3669	-0.13022	-0.130287	-0.000186549	2	8.91476e-06	2.4305e-08
2	1	0	1	0	39.4669	-0.125219	-0.125362	-0.000179598	2	8.89685e-06	2.25148e-08
2	1	0	1	0	39.5669	-0.120219	-0.120299	-0.000174622	2	8.87951e-06	2.10069e-08
2	1	0	1	0	39.6669	-0.115219	-0.115324	-0.00016885	2	8.86271e-06	1.94724e-08
2	1	0	1	0	39.7669	-0.110219	-0.110319	-0.00016487	2	8.8464e-06	1.81883e-08
2	1	0	1	0	39.8669	-0.105219	-0.105286	-0.000160366	2	8.83057e-06	1.68843e-08
2	1	0	1	0	39.9669	-0.100218	-0.100301	-0.000155987	2	8.81521e-06	1.56456e-08
2	1	0	0	0	40.0671	-0.0952182	-0.0953383	-0.000149421	3	8.80025e-06	1.42455e-08
2	1	0	0	0	40.1671	-0.090218	-0.0902952	-0.000146782	3	8.78578e-06	1.32537e-08
2	1	0	0	0	40.2671	-0.0852178	-0.0853243	-0.000141479	3	8.77171e-06	1.20716e-08
2	1	0	0	0	40.3671	-0.0802176	-0.080329	-0.00013812	3	8.75806e-06	1.1095e-08
2	1	0	0	0	40.4671	-0.0752174	-0.0753125	-0.000132821	3	8.74483e-06	1.0003e-08
2	1	0	0	0	40.5671	-0.0702172	-0.0703055	-0.000129719	3	8.73199e-06	9.11995e-09
2	1	0	0	0	40.6671	-0.065217	-0.0653092	-0.000124391	3	8.71956e-06	8.12389e-09
2	1	0	0	0	40.7671	-0.0602168	-0.0603743	-0.000120742	3	8.70757e-06	7.28971e-09
2	1	0	0	0	40.8671	-0.0552166	-0.0553122	-0.0001182	3	8.69599e-06	6.5379e-09
2	1	0	0	0	40.9671	-0.0502164	-0.0503137	-0.000113625	3	8.68488e-06	5.7169e-09
2	1	0	0	0	41.0671	-0.0452162	-0.0453088	-0.000107702	3	8.67421e-06	4.87987e-09
2	1	0	0	0	41.1671	-0.040216	-0.0402944	-0.000103505	3	8.66406e-06	4.17069e-09
2	1	0	0	0	41.2671	-0.0352158	-0.0353235	-9.70422e-05	3	8.65447e-06	3.42787e-09
2	1	0	0	0	41.3671	-0.0302156	-0.0303505	-9.02221e-05	3	8.64551e-06	2.73828e-09
2	1	0	0	0	41.4671	-0.0252153	-0.0252439	-8.24765e-05	3	8.63729e-06	2.08202e-09
2	1	0	0	0	41.5671	-0.0202151	-0.0203418	-7.206e-05	3	8.62994e-06	1.46583e-09
2	1	0	0	0	41.6671	-0.0152149	-0.0153232	-5.97677e-05	3	8.62362e-06	9.15833e-10
2	1	0	0	0	41.7671	-0.0102147	-0.010347	-4.74595e-05	3	8.61862e-06	4.91062e-10
2	1	0	0	0	41.8671	-0.00521453	-0.00529443	-2.96471e-05	3	8.61523e-06	1.56965e-10
2	1	0	0	0	41.9671	-0.000214331	-0.000340465	-3.79768e-06	3	8.61394e-06	1.29297e-12
2	1	0	0	0	42.0671	0.00478587	0.00470255	2.59025e-05	3	8.61528e-06	1.21808e-10
2	1	0	0	0	42.1671	0.00978607	0.00967983	6.2746e-05	3	8.61999e-06	6.07371e-10
2	1	0	0	0	42.2671	0.0147863	0.0147515	0.000111891	3	8.62906e-06	1.65055e-09
2	1	0	0	0	42.3671	0.0197865	0.0196885	0.000174727	3	8.64363e-06	3.4401e-09
2	1	0	0	0	42.4671	0.0247867	0.0247506	0.000252194	3	8.66514e-06	6.24193e-09
2	1	0	0	0	42.5671	0.0297869	0.0296738	0.000346344	3	8.69527e-06	1.02773e-08
2	1	0	0	0	42.6671	0.0347871	0.0347454	0.000460337	3	8.73585e-06	1.59946e-08
2	1	0	0	0	42.7671	0.0397873	0.0397248	0.00059468	3	8.78884e-06	2.36236e-08
2	1	0	0	0	42.8671	0.0447875	0.0446915	0.000746525	3	8.8561e-06	3.33633e-08
2	1	0	0	0	42.9671	0.0497877	0.0497313	0.000911252	3	8.93926e-06	4.53178e-08
2	1	0	0	0	43.0671	0.0547879	0.0546545	0.0010851	3	9.03965e-06	5.93054e-08
2	1	0	0	0	43.1671	0.0597881	0.0597135	0.00126126	3	9.15748e-06	7.53144e-08
2	1	0	0	0	43.2671	0.0647883	0.0647469	0.00142685	3	9.29229e-06	9.23841e-08
2	1	0	0	0	43.3671	0.0697885	0.069721	0.00157161	3	9.44272e-06	1.09574e-07
2	1	0	0	0	43.4671	0.0747887	0.0747068	0.00169034	3	9.60648e-06	1.2628e-07
2	1	0	0	0	43.5671	0.0797889	0.0797042	0.00177885	3	9.78075e-06	1.41782e-07
2	1	0	0	0	43.6671	0.0847891	0.0846783	0.00183528	3	9.96221e-06	1.55408e-07
2	1	0	0	0	43.7671	0.0897893	0.0897065	0.0018596	3	1.01476e-05	1.66818e-07
2	1	0	0	0	43.8671	0.0947895	0.0946838	0.00185719	3	1.0334e-05	1.75846e-07
2	1	0	0	0	43.9671	0.0997897	0.0997459	0.00183087	3	1.05189e-05	1.82622e-07
2	1	0	0	0	44.0671	0.10479	0.104693	0.00179033	3	1.07005e-05	1.87436e-07
2	1	0	0	0	44.1671	0.10979	0.109693	0.0017381	3	1.08774e-05	1.90658e-07
2	1	0	0	0	44.2671	0.11479	0.114627	0.00168174	3	1.10488e-05	1.92772e-07
2	1	0	0	0	44.3671	0.11979	0.119686	0.00162269	3	1.12144e-05	1.94213e-07
2	1	0	0	0	44.4671	0.124791	0.124639	0.00156432	3	1.13741e-05	1.94975e-07
2	1	0	0	0	44.5671	0.129791	0.129703	0.0015076	3	1.1528e-05	1.9554e-07
2	1	0	0	0	44.6671	0.134791	0.134691	0.00145474	3	1.16765e-05	1.95941e-07
2	1	0	0	0	44.7671	0.139791	0.139649	0.00140525	3	1.18198e-05	1.96242e-07
2	1	0	0	0	44.8671	0.144791	0.1447	0.00136035	3	1.19584e-05	1.96843e-07
2	1	0	1	0	44.9673	0.149792	0.149687	0.0013171	3	1.20928e-05	1.97153e-07
2	1	0	1	0	45.0673	0.154792	0.154733	0.00127814	3	1.22229e-05	1.97771e-07
2	1	0	1	0	45.1673	0.159792	0.159659	0.00124316	3	1.23493e-05	1.98481e-07
2	1	0	1	0	45.2673	0.164792	0.16469	0.0012107	3	1.24723e-05	1.9939e-07
2	1	0	1	0	45.3673	0.169792	0.16966	0.00118001	3	1.25922e-05	2.00201e-07
2	1	0	1	0	45.4673	0.174793	0.17469	0.00115245	3	1.27092e-05	2.01321e-07
2	1	0	1	0	45.5673	0.179793	0.17963	0.00112686	3	1.28235e-05	2.02419e-07
2	1	0	1	0	45.6673	0.184793	0.184648	0.00110208	3	1.29354e-05	2.03497e-07
2	1	0	1	0	45.7673	0.189793	0.189643	0.00108079	3	1.3045e-05	2.04965e-07
2	1	0	1	0	45.8673	0.194794	0.194739	0.00105886	3	1.31524e-05	2.06202e-07
2	1	0	1	0	45.9673	0.199794	0.19967	0.00104305	3	1.32579e-05	2.08266e-07
2	1	0	1	0	46.0673	0.204794	0.204671	0.0010247	3	1.33617e-05	2.09725e-07
2	1	0	1	0	46.1673	0.209794	0.209721	0.0010086	3	1.34637e-05	2.11525e-07
2	1	0	1	0	46.2673	0.214794	0.214641	0.000991531	3	1.35642e-05	2.12823e-07
2	1	0	1	0	46.3673	0.219795	0.219676	0.000979525	3	1.36633e-05	2.15178e-07
2	1	0	1	0	46.4673	0.224795	0.22468	0.00096607	3	1.37609e-05	2.17057e-07
2	1	0	1	0	46.5673	0.229795	0.229728	0.000953186	3	1.38573e-05	2.18973e-07
2	1	0	1	0	46.6673	0.234795	0.234672	0.000940526	3	1.39524e-05	2.20715e-07
2	1	0	1	0	46.7673	0.239795	0.239674	0.000929548	3	1.40463e-05	2.22788e-07
2	1	0	1	0	46.8673	0.244796	0.244709	0.000918867	3	1.41391e-05	2.24855e-07
2	1	0	1	0	46.9673	0.249796	0.249673	0.000907825	3	1.42308e-05	2.26659e-07
2	1	0	1	0	47.0673	0.254796	0.254678	0.000898214	3	1.43216e-05	2.28755e-07
2	1	0	1	0	47.1673	0.259796	0.259643	0.000890899	3	1.44115e-05	2.31316e-07
2	1	0	1	0	47.2673	0.264796	0.264686	0.000881304	3	1.45005e-05	2.33269e-07
2	1	0	1	0	47.3673	0.269797	0.26977	0.000875147	3	1.45888e-05	2.36088e-07
2	1	0	1	0	47.4673	0.274797	0.274619	0.000869238	3	1.46764e-05	2.38709e-07
2	1	0	1	0	47.5673	0.279797	0.279687	0.000862959	3	1.47634e-05	2.41358e-07
2	1	0	1	0	47.6673	0.284797	0.284685	0.000859666	3	1.48499e-05	2.44734e-07
2	1	0	1	0	47.7673	0.289797	0.289726	0.000853272	3	1.49359e-05	2.47215e-07
2	1	0	1	0	47.8673	0.294798	0.294661	0.00085037	3	1.50216e-05	2.50571e-07
2	1	0	1	0	47.9663	0.299748	0.299612	0.000848292	3	1.51062e-05	2.54159e-07
2	0	0	1	0	48.0469	0.296248	0.296113	0.000708858	3	1.51654e-05	2.09902e-07
2	0	0	1	0	48.1469	0.291247	0.291111	0.000678683	3	1.52344e-05	1.97572e-07
2	0	0	1	0	48.2469	0.286247	0.28612	0.000657041	3	1.5301e-05	1.87993e-07
2	0	0	1	0	48.3469	0.281247	0.281093	0.000638199	3	1.53656e-05	1.79393e-07
2	0	0	1	0	48.4469	0.276247	0.276109	0.000622891	3	1.54285e-05	1.71986e-07
2	0	0	1	0	48.5469	0.271247	0.271111	0.000610143	3	1.54899e-05	1.65416e-07
2	0	0	1	0	48.6469	0.266246	0.266086	0.000596551	3	1.555e-05	1.58734e-07
2	0	0	1	0	48.7469	0.261246	0.261156	0.000585606	3	1.5609e-05	1.52935e-07
2	0	0	1	0	48.8469	0.256246	0.256121	0.000576167	3	1.56668e-05	1.47568e-07
2	0	0	1	0	48.9469	0.251246	0.251033	0.000565028	3	1.57236e-05	1.41841e-07
2	0	0	1	0	49.0469	0.246246	0.246064	0.000555314	3	1.57795e-05	1.36643e-07
2	0	0	1	0	49.1469	0.241245	0.241135	0.000547636	3	1.58345e-05	1.32054e-07
2	0	0	1	0	49.2469	0.236245	0.236132	0.000538975	3	1.58886e-05	1.27269e-07
2	0	0	1	0	49.3469	0.231245	0.231155	0.000529571	3	1.59419e-05	1.22413e-07
2	0	0	1	0	49.4469	0.226245	0.226099	0.000523503	3	1.59943e-05	1.18364e-07
2	0	0	1	0	49.5469	0.221245	0.2211	0.000515514	3	1.6046e-05	1.1398e-07
2	0	0	1	0	49.6469	0.216244	0.216127	0.000505495	3	1.60969e-05	1.09251e-07
2	0	0	1	0	49.7469	0.211244	0.211024	0.000500388	3	1.61471e-05	1.05594e-07
2	0	0	1	0	49.8469	0.206244	0.206131	0.000491353	3	1.61965e-05	1.01283e-07
2	0	0	1	0	49.9469	0.201244	0.2011	0.00048548	3	1.62451e-05	9.76301e-08
2	0	0	1	0	50.0469	0.196244	0.196093	0.000477354	3	1.6293e-05	9.36059e-08
2	0	0	1	0	50.1469	0.191243	0.191086	0.000468351	3	1.63402e-05	8.94954e-08
2	0	0	1	0	50.2469	0.186243	0.186144	0.00046146	3	1.63866e-05	8.5898e-08
2	0	0	1	0	50.3469	0.181243	0.181152	0.000454374	3	1.64322e-05	8.23106e-08
2	0	0	1	0	50.4469	0.176243	0.176074	0.000446416	3	1.64771e-05	7.86022e-08
2	0	0	1	0	50.5469	0.171243	0.171074	0.000437017	3	1.65212e-05	7.47623e-08
2	0	0	1	0	50.6469	0.166242	0.166111	0.000429664	3	1.65645e-05	7.13717e-08
2	0	0	1	0	50.7469	0.161242	0.161096	0.000422367	3	1.66069e-05	6.80417e-08
2	0	0	1	0	50.8469	0.156242	0.156121	0.000414017	3	1.66485e-05	6.46368e-08
2	0	0	1	0	50.9469	0.151242	0.151058	0.000402873	3	1.66891e-05	6.08571e-08
2	0	0	0	0	51.0471	0.146242	0.146122	0.00039302	3	1.67289e-05	5.74288e-08
2	0	0	0	0	51.1471	0.141241	0.141083	0.000383342	3	1.67675e-05	5.40831e-08
2	0	0	0	0	51.2471	0.136241	0.136106	0.000369654	3	1.6805e-05	5.03121e-08
2	0	0	0	0	51.3471	0.131241	0.13111	0.000355655	3	1.68412e-05	4.66298e-08
2	0	0	0	0	51.4471	0.126241	0.126071	0.000338738	3	1.68758e-05	4.2705e-08
2	0	0	0	0	51.5471	0.121241	0.121082	0.000323924	3	1.69088e-05	3.92213e-08
2	0	0	0	0	51.6471	0.11624	0.116096	0.000300987	3	1.69398e-05	3.49434e-08
2	0	0	0	0	51.7471	0.11124	0.111115	0.000274293	3	1.69683e-05	3.0478e-08
2	0	0	0	0	51.8471	0.10624	0.10609	0.000242422	3	1.6994e-05	2.57185e-08
2	0	0	0	0	51.9471	0.10124	0.101114	0.000204656	3	1.70162e-05	2.06937e-08
2	0	0	0	0	52.0471	0.0962396	0.0960863	0.000155554	3	1.70341e-05	1.49466e-08
2	0	0	0	0	52.1471	0.0912393	0.0911249	9.71377e-05	3	1.70468e-05	8.85167e-09
2	0	0	0	0	52.2471	0.0862391	0.0861063	2.48303e-05	3	1.70529e-05	2.13805e-09
2	0	0	0	0	52.3471	0.0812389	0.0810951	-6.05855e-05	3	1.70511e-05	-4.91319e-09
2	0	0	0	0	52.4471	0.0762387	0.076157	-0.00016584	3	1.70396e-05	-1.26299e-08
2	0	0	0	0	52.5471	0.0712385	0.0710727	-0.000295322	3	1.70165e-05	-2.09893e-08
2	0	0	0	0	52.6471	0.0662383	0.0660996	-0.000438631	3	1.69798e-05	-2.89934e-08
2	0	0	0	0	52.7471	0.0612381	0.0611213	-0.000604655	3	1.69275e-05	-3.69573e-08
2	0	0	0	0	52.8471	0.0562379	0.0561546	-0.000782421	3	1.68581e-05	-4.39366e-08
2	0	0	0	0	52.9471	0.0512377	0.0511678	-0.000968215	3	1.67704e-05	-4.95414e-08
2	0	0	0	0	53.0471	0.0462375	0.0461015	-0.00115021	3	1.66641e-05	-5.30263e-08
2	0	0	0	0	53.1471	0.0412373	0.0410977	-0.0013162	3	1.65403e-05	-5.40928e-08
2	0	0	0	0	53.2471	0.0362371	0.0361246	-0.00145597	3	1.64013e-05	-5.25966e-08
2	0	0	0	0	53.3471	0.0312369	0.0311198	-0.00155865	3	1.62501e-05	-4.85048e-08
2	0	0	0	0	53.4471	0.0262367	0.0261012	-0.00161918	3	1.60908e-05	-4.22624e-08
2	0	0	0	0	53.5471	0.0212365	0.0211525	-0.00163818	3	1.59275e-05	-3.46516e-08
2	0	0	0	0	53.6471	0.0162363	0.0160925	-0.00162258	3	1.57639e-05	-2.61114e-08
2	0	0	0	0	53.7471	0.0112361	0.0111311	-0.00158064	3	1.56035e-05	-1.75943e-08
2	0	0	0	0	53.8471	0.00623593	0.00611993	-0.00151917	3	1.54482e-05	-9.29719e-09
2	0	0	0	0	53.9471	0.00123573	0.00107162	-0.00144574	3	1.52998e-05	-1.54929e-09
2	0	0	0	0	54.0471	-0.00376448	-0.00392369	-0.00137193	3	1.51586e-05	5.38303e-09
2	0	0	0	0	54.1471	-0.00876468	-0.00890627	-0.00129752	3	1.50251e-05	1.15561e-08
2	0	0	0	0	54.2471	-0.0137649	-0.0139101	-0.0012266	3	1.48988e-05	1.70622e-08
2	0	0	0	0	54.3471	-0.0187651	-0.0188704	-0.00116049	3	1.47795e-05	2.18988e-08
2	0	0	0	0	54.4471	-0.0237653	-0.023906	-0.00109878	3	1.46664e-05	2.62674e-08
2	0	0	0	0	54.5471	-0.0287655	-0.0288949	-0.00104465	3	1.45591e-05	3.01851e-08
2	0	0	0	0	54.6471	-0.0337657	-0.0339337	-0.000996484	3	1.4457e-05	3.38144e-08
2	0	0	0	0	54.7471	-0.0387659	-0.0388824	-0.000952767	3	1.43595e-05	3.70458e-08
2	0	0	0	0	54.8471	-0.0437661	-0.0438989	-0.000911725	3	1.42662e-05	4.00237e-08
2	0	0	0	0	54.9471	-0.0487663	-0.0488846	-0.000874583	3	1.41767e-05	4.27537e-08
2	0	0	0	0	55.0471	-0.0537665	-0.0539679	-0.000845047	3	1.40906e-05	4.56055e-08
2	0	0	0	0	55.1471	-0.0587667	-0.0589155	-0.000813902	3	1.40076e-05	4.79515e-08
2	0	0	0	0	55.2471	-0.0637669	-0.0638886	-0.000787479	3	1.39274e-05	5.03109e-08
2	0	0	0	0	55.3471	-0.0687671	-0.0689051	-0.00076394	3	1.38498e-05	5.26393e-08
2	0	0	0	0	55.4471	-0.0737673	-0.0739131	-0.00074083	3	1.37746e-05	5.47571e-08
2	0	0	0	0	55.5471	-0.0787675	-0.0789519	-0.000718155	3	1.37016e-05	5.66997e-08
2	0	0	0	0	55.6471	-0.0837677	-0.0839016	-0.000698094	3	1.36307e-05	5.85712e-08
2	0	0	0	0	55.7471	-0.0887679	-0.0889658	-0.000681733	3	1.35617e-05	6.0651e-08
2	0	0	0	0	55.8471	-0.0937681	-0.0939675	-0.000663188	3	1.34944e-05	6.23181e-08
2	0	0	0	0	55.9472	-0.0987705	-0.0989069	-0.00064673	3	1.34287e-05	6.39661e-08
2	0	0	1	0	56.0473	-0.103769	-0.104002	-0.00063261	3	1.33645e-05	6.57924e-08
2	0	0	1	0	56.1473	-0.108769	-0.10892	-0.000619274	3	1.33018e-05	6.7451e-08
2	0	0	1	0	56.2473	-0.113769	-0.113916	-0.000605498	3	1.32404e-05	6.89758e-08
2	0	0	1	0	56.3473	-0.118769	-0.118867	-0.000593498	3	1.31802e-05	7.05472e-08
2	0	0	1	0	56.4473	-0.123769	-0.123882	-0.000582264	3	1.31212e-05	7.21321e-08
2	0	0	1	0	56.5473	-0.12877	-0.128885	-0.00057348	3	1.30633e-05	7.39129e-08
2	0	0	1	0	56.6473	-0.13377	-0.133872	-0.000562837	3	1.30065e-05	7.5348e-08
2	0	0	1	0	56.7473	-0.13877	-0.138867	-0.000552011	3	1.29506e-05	7.66561e-08
2	0	0	1	0	56.8473	-0.14377	-0.14384	-0.000541649	3	1.28958e-05	7.79109e-08
2	0	0	1	0	56.9473	-0.14877	-0.14881	-0.000533353	3	1.28418e-05	7.93682e-08
2	0	0	1	0	57.0473	-0.153771	-0.153858	-0.00052466	3	1.27888e-05	8.07233e-08
2	0	0	1	0	57.1473	-0.158771	-0.158913	-0.000516187	3	1.27365e-05	8.20287e-08
2	0	0	1	0	57.2473	-0.163771	-0.163865	-0.000510054	3	1.26851e-05	8.35798e-08
2	0	0	1	0	57.3473	-0.168771	-0.168876	-0.00050402	3	1.26344e-05	8.51168e-08
2	0	0	1	0	57.4473	-0.173771	-0.173894	-0.000495758	3	1.25843e-05	8.62092e-08
2	0	0	1	0	57.5473	-0.178772	-0.178845	-0.000489037	3	1.25349e-05	8.7462e-08
2	0	0	1	0	57.6473	-0.183772	-0.183842	-0.000483984	3	1.24861e-05	8.89764e-08
2	0	0	1	0	57.7473	-0.188772	-0.188905	-0.000478647	3	1.24378e-05	9.04188e-08
2	0	0	1	0	57.8473	-0.193772	-0.193847	-0.000474816	3	1.23901e-05	9.20417e-08
2	0	0	1	0	57.9473	-0.198772	-0.198872	-0.000470363	3	1.23428e-05	9.35421e-08
2	1	0	1	1	58.0377	-0.196722	-0.19682	-0.000331395	3	1.23085e-05	6.52251e-08
2	1	0	1	1	58.1377	-0.191722	-0.191791	-0.000309172	3	1.22768e-05	5.92963e-08
2	1	0	1	1	58.2377	-0.186722	-0.186854	-0.000293434	3	1.22469e-05	5.48291e-08
2	1	0	1	1	58.3377	-0.181722	-0.181754	-0.000280214	3	1.22185e-05	5.09301e-08
2	1	0	1	1	58.4377	-0.176722	-0.176784	-0.000269732	3	1.21913e-05	4.76845e-08
2	1	0	1	1	58.5377	-0.171721	-0.171809	-0.000259335	3	1.21651e-05	4.45562e-08
2	1	0	1	1	58.6377	-0.166721	-0.166824	-0.00024874	3	1.214e-05	4.14957e-08
2	1	0	1	1	58.7377	-0.161721	-0.161789	-0.000241002	3	1.21157e-05	3.89914e-08
2	1	0	1	1	58.8377	-0.156721	-0.156761	-0.000232262	3	1.20923e-05	3.64095e-08
2	1	0	1	1	58.9377	-0.15172	-0.151832	-0.00022509	3	1.20696e-05	3.41759e-08
2	1	0	1	1	59.0377	-0.14672	-0.146807	-0.000217413	3	1.20477e-05	3.19179e-08
2	1	0	1	1	59.1377	-0.14172	-0.141772	-0.000210452	3	1.20265e-05	2.98361e-08
2	1	0	1	1	59.2377	-0.13672	-0.136827	-0.000204508	3	1.20059e-05	2.79823e-08
2	1	0	1	1	59.3377	-0.13172	-0.131844	-0.000199332	3	1.1986e-05	2.62807e-08
2	1	0	1	1	59.4377	-0.126719	-0.126819	-0.000192632	3	1.19667e-05	2.44294e-08
2	1	0	1	1	59.5377	-0.121719	-0.121807	-0.000186881	3	1.1948e-05	2.27635e-08
2	1	0	1	1	59.6377	-0.116719	-0.11685	-0.000181379	3	1.19298e-05	2.11942e-08
2	1	0	1	1	59.7377	-0.111719	-0.11179	-0.00017633	3	1.19121e-05	1.9712e-08
2	1	0	1	1	59.8377	-0.106719	-0.106798	-0.000172116	3	1.1895e-05	1.83817e-08
2	1	0	1	1	59.9377	-0.101718	-0.101845	-0.000165921	3	1.18783e-05	1.68983e-08
2	1	0	0	1	60.0379	-0.0967183	-0.0967493	-0.000162973	3	1.1862e-05	1.57675e-08
2	1	0	0	1	60.1379	-0.091718	-0.0917953	-0.000159652	3	1.18463e-05	1.46553e-08
2	1	0	0	1	60.2379	-0.0867178	-0.0868276	-0.000153122	3	1.18309e-05	1.32952e-08
2	1	0	0	1	60.3379	-0.0817176	-0.0818619	-0.000148789	3	1.1816e-05	1.21801e-08
2	1	0	0	1	60.4379	-0.0767175	-0.0767914	-0.000146482	3	1.18015e-05	1.12485e-08
2	1	0	0	1	60.5379	-0.0717172	-0.0718194	-0.00014237	3	1.17874e-05	1.02249e-08
2	1	0	0	1	60.6379	-0.066717	-0.066841	-0.000137378	3	1.17737e-05	9.18248e-09
2	1	0	0	1	60.7086	-0.0631419	-0.0632377	-0.000135313	3	1.17643e-05	8.55687e-09