File: AutoAnalysis Examples/EC/C003B-0ppb-A_C01.mpt
EC-Lab ASCII FILE
Nb header lines : 59

Cyclic Voltammetry

Run on channel : 1 (SN 22398)
User :
CE vs. WE compliance from -10 V to 10 V
Electrode connection : standard
Ewe ctrl range : min = -1.00 V, max = 1.00 V
Safety Limits :
	Ewe min = -2.00 V
	Ewe max = 2.00 V
	|I| = 50.000 mA
	for t > 10 ms
Acquisition started on : 11/21/2018 10:14:11
Technique started on : 11/21/2018 10:14:11
Saved on :
	File : C003B-0ppb-A_C01.mpr
	Directory : \\ECCOMPUTER\Users\Lab User\Google Drive\Electrochemical Data\EC-Lab\Data\FREDsense\Tim\2018.11.21 - EC comparison to High Throughput\
	Host : 172.16.1.30
Device : SP-50 (SN 0301030103010301)
Address : USB
EC-Lab for windows v11.02 (software)
Internet server v11.02 (firmware)
Command interpretor v11.02 (firmware)
Electrode material : Au/Pd
Initial state :
Electrolyte : NaCl (0.2M)
Comments : Fe(CN)63-/Fe(CN)64- 5.10-3 M
Reference electrode : SCE Saturated Calomel Electrode (0.241 V)
Electrode surface area : 0.001 cm²
Characteristic mass : 0.001 g
Equivalent Weight : 0.000 g/eq.
Density : 0.000 g/cm3
Cycle Definition : Charge/Discharge alternance
Ei (V)              -0.100
vs.                 Ref
dE/dt               50.000
dE/dt unit          mV/s
E1 (V)              0.300
vs.                 Ref
Step percent        50
N                   10
E range min (V)     -1.000
E range max (V)     1.000
I Range             Auto
I Range min         Unset
I Range max         Unset
I Range init        Unset
Bandwidth           5
E2 (V)              -0.200
vs.                 Ref
nc cycles           2
Reverse Scan        1
Ef (V)              0.000
vs.                 Eoc

mode	ox/red	error	control changes	counter inc.	time/s	control/V	Ewe/V	<I>/mA	cycle number	(Q-Qo)/C	P/W
2	1	0	0	0	0.000000000000000E+000	-0.0984786	-0.0985673	-6.54236e-05	1	0.0000000E+000	6.44863e-09
2	1	0	0	0	0.1112	-0.0929285	-0.0931566	-5.34556e-06	1	1.63733e-09	4.97974e-10
2	1	0	1	0	0.2267	-0.0871533	-0.0873184	4.42218e-05	1	6.02468e-09	-3.86138e-09
2	1	0	1	0	0.3267	-0.0821532	-0.082339	5.00138e-05	1	1.11242e-08	-4.11809e-09
2	1	0	1	0	0.4267	-0.0771531	-0.0773596	5.53218e-05	1	1.66641e-08	-4.27967e-09
2	1	0	1	0	0.5267	-0.0721529	-0.0723134	5.92909e-05	1	2.25349e-08	-4.28753e-09
2	1	0	1	0	0.6267	-0.0671528	-0.0673997	5.93404e-05	1	2.86585e-08	-3.99952e-09
2	1	0	1	0	0.7267	-0.0621527	-0.0623143	6.34525e-05	1	3.50419e-08	-3.954e-09
2	1	0	1	0	0.8267	-0.0571525	-0.0573508	6.50865e-05	1	4.16351e-08	-3.73276e-09
2	1	0	1	0	0.9267	-0.0521524	-0.0523873	7.07054e-05	1	4.84376e-08	-3.70406e-09
2	1	0	1	0	1.0267	-0.0471523	-0.0473273	7.06506e-05	1	5.54681e-08	-3.3437e-09
2	1	0	1	0	1.1267	-0.0421521	-0.042368	7.09244e-05	1	6.27042e-08	-3.00493e-09
2	1	0	1	0	1.2267	-0.037152	-0.0372974	7.43671e-05	1	7.01953e-08	-2.7737e-09
2	1	0	1	0	1.3267	-0.0321519	-0.0323414	7.6969e-05	1	7.79347e-08	-2.48928e-09
2	1	0	1	0	1.4267	-0.0271517	-0.0273567	7.96681e-05	1	8.5962e-08	-2.17945e-09
2	1	0	1	0	1.5267	-0.0221516	-0.0223751	8.48913e-05	1	9.43695e-08	-1.89945e-09
2	1	0	1	0	1.6267	-0.0171515	-0.0173692	8.9597e-05	1	1.03206e-07	-1.55623e-09
2	1	0	1	0	1.7267	-0.0121513	-0.0123368	9.66396e-05	1	1.12574e-07	-1.19222e-09
2	1	0	1	0	1.8267	-0.00715119	-0.00735528	0.000102984	1	1.22607e-07	-7.5748e-10
2	1	0	1	0	1.9267	-0.00215105	-0.00239496	0.000111774	1	1.33523e-07	-2.67694e-10
2	1	0	1	0	2.0267	0.00284908	0.00269152	0.000125135	1	1.45651e-07	3.36804e-10
2	1	0	1	0	2.1267	0.00784922	0.00769531	0.000143096	1	1.59257e-07	1.10117e-09
2	1	0	1	0	2.2267	0.0128493	0.0127235	0.000167274	1	1.74847e-07	2.12831e-09
2	1	0	1	0	2.3267	0.0178495	0.017705	0.000195757	1	1.93048e-07	3.46588e-09
2	1	0	1	0	2.4267	0.0228496	0.0226908	0.000233828	1	2.14636e-07	5.30575e-09
2	1	0	1	0	2.5267	0.0278497	0.027702	0.00028139	1	2.40579e-07	7.79507e-09
2	1	0	1	0	2.6267	0.0328499	0.0327153	0.000343887	1	2.71943e-07	1.12504e-08
2	1	0	1	0	2.7267	0.03785	0.0377117	0.000414365	1	3.09942e-07	1.56264e-08
2	1	0	1	0	2.8267	0.0428501	0.0426582	0.000499524	1	3.55789e-07	2.13088e-08
2	1	0	1	0	2.9267	0.0478503	0.0476472	0.00059199	1	4.10518e-07	2.82066e-08
2	1	0	1	0	3.0267	0.0528504	0.0527623	0.000691495	1	4.74998e-07	3.64848e-08
2	1	0	1	0	3.1267	0.0578506	0.05773	0.000789323	1	5.49355e-07	4.55676e-08
2	1	0	1	0	3.2267	0.0628507	0.0627497	0.000881428	1	6.33289e-07	5.53093e-08
2	1	0	1	0	3.3267	0.0678508	0.0677386	0.000961547	1	7.25793e-07	6.51338e-08
2	1	0	1	0	3.4267	0.0728509	0.0726936	0.00102105	1	8.25307e-07	7.42239e-08
2	1	0	1	0	3.5267	0.0778511	0.0777006	0.00106302	1	9.29939e-07	8.25971e-08
2	1	0	1	0	3.6267	0.0828512	0.0827245	0.00108309	1	1.03764e-06	8.95983e-08
2	1	0	1	0	3.7267	0.0878513	0.0877262	0.00108699	1	1.14649e-06	9.53576e-08
2	1	0	1	0	3.8267	0.0928515	0.0927385	0.00107464	1	1.25491e-06	9.96608e-08
2	1	0	1	0	3.9267	0.0978516	0.0977306	0.00105414	1	1.36167e-06	1.03022e-07
2	1	0	1	0	4.0267	0.102852	0.102726	0.00102561	1	1.46596e-06	1.05357e-07
2	1	0	1	0	4.1267	0.107852	0.107696	0.000996445	1	1.5673e-06	1.07313e-07
2	1	0	1	0	4.2267	0.112852	0.112762	0.000965436	1	1.66551e-06	1.08865e-07
2	1	0	1	0	4.3267	0.117852	0.117712	0.000931661	1	1.76058e-06	1.09667e-07
2	1	0	1	0	4.4267	0.122852	0.122717	0.000903632	1	1.85264e-06	1.10891e-07
2	1	0	1	0	4.5267	0.127852	0.127691	0.00087627	1	1.94183e-06	1.11892e-07
2	1	0	1	0	4.6267	0.132853	0.132636	0.000850758	1	2.02838e-06	1.12841e-07
2	1	0	1	0	4.7267	0.137853	0.137668	0.000826387	1	2.11254e-06	1.13767e-07
2	1	0	1	0	4.8267	0.142853	0.142734	0.000805924	1	2.19453e-06	1.15033e-07
2	1	0	1	0	4.9267	0.147853	0.147712	0.000788528	1	2.27453e-06	1.16475e-07
2	1	0	1	0	5.0267	0.152853	0.152755	0.000775997	1	2.35276e-06	1.18538e-07
2	1	0	1	0	5.1267	0.157853	0.157752	0.000756198	1	2.42942e-06	1.19291e-07
2	1	0	1	0	5.2267	0.162853	0.162732	0.000743345	1	2.5046e-06	1.20966e-07
2	1	0	1	0	5.3267	0.167853	0.167756	0.000731604	1	2.57852e-06	1.22731e-07
2	1	0	1	0	5.4267	0.172854	0.172712	0.000719709	1	2.65125e-06	1.24303e-07
2	1	0	1	0	5.5267	0.177854	0.17771	0.000709406	1	2.72293e-06	1.26068e-07
2	1	0	1	0	5.6267	0.182854	0.182676	0.000701121	1	2.79368e-06	1.28078e-07
2	1	0	1	0	5.7267	0.187854	0.1877	0.000690875	1	2.86357e-06	1.29677e-07
2	1	0	1	0	5.8267	0.192854	0.192691	0.000686623	1	2.93271e-06	1.32306e-07
2	1	0	1	0	5.9267	0.197854	0.197765	0.000679676	1	3.00117e-06	1.34416e-07
2	1	0	1	0	6.0267	0.202854	0.202716	0.000674331	1	3.06899e-06	1.36698e-07
2	1	0	1	0	6.1267	0.207855	0.207755	0.000668092	1	3.13631e-06	1.38799e-07
2	1	0	1	0	6.2267	0.212855	0.212738	0.000664465	1	3.20315e-06	1.41357e-07
2	1	0	1	0	6.3267	0.217855	0.217713	0.000659782	1	3.26959e-06	1.43643e-07
2	1	0	1	0	6.4267	0.222855	0.222684	0.000658429	1	3.33567e-06	1.46622e-07
2	1	0	1	0	6.5267	0.227855	0.227724	0.00065537	1	3.40144e-06	1.49243e-07
2	1	0	1	0	6.6267	0.232855	0.232724	0.000651813	1	3.46698e-06	1.51693e-07
2	1	0	1	0	6.7267	0.237855	0.237746	0.000648062	1	3.53229e-06	1.54074e-07
2	1	0	1	0	6.8267	0.242855	0.242704	0.000647688	1	3.59745e-06	1.57197e-07
2	1	0	1	0	6.9267	0.247856	0.247777	0.000648108	1	3.66247e-06	1.60586e-07
2	1	0	1	0	7.0267	0.252856	0.252717	0.000647271	1	3.72741e-06	1.63576e-07
2	1	0	1	0	7.1267	0.257856	0.25773	0.000646771	1	3.79242e-06	1.66693e-07
2	1	0	1	0	7.2267	0.262856	0.262816	0.000647266	1	3.85727e-06	1.70112e-07
2	1	0	1	0	7.3267	0.267856	0.267738	0.00064881	1	3.92211e-06	1.73711e-07
2	1	0	0	0	7.4269	0.272857	0.272726	0.000648184	1	3.98718e-06	1.76776e-07
2	1	0	0	0	7.5269	0.277856	0.277751	0.000648101	1	4.05218e-06	1.80011e-07
2	1	0	0	0	7.6269	0.282857	0.282833	0.000649781	1	4.1173e-06	1.8378e-07
2	1	0	0	0	7.7269	0.287857	0.287738	0.000652266	1	4.18256e-06	1.87682e-07
2	1	0	0	0	7.8269	0.292857	0.292755	0.000652214	1	4.24797e-06	1.90939e-07
2	1	0	0	0	7.9269	0.297857	0.297716	0.00065514	1	4.3136e-06	1.95046e-07
2	0	0	0	0	8.0153	0.297707	0.29757	0.000514885	1	4.36599e-06	1.53214e-07
2	0	0	0	0	8.1153	0.292707	0.292558	0.000467758	1	4.41478e-06	1.36846e-07
2	0	0	0	0	8.2153	0.287707	0.287582	0.000436312	1	4.45974e-06	1.25476e-07
2	0	0	0	0	8.3153	0.282707	0.282586	0.000413877	1	4.50192e-06	1.16956e-07
2	0	0	0	0	8.4153	0.277706	0.277563	0.000392866	1	4.54187e-06	1.09045e-07
2	0	0	0	0	8.5153	0.272708	0.272606	0.00037531	1	4.58003e-06	1.02312e-07
2	0	0	1	0	8.6155	0.267706	0.267542	0.000360186	1	4.61674e-06	9.63648e-08
2	0	0	1	0	8.7155	0.262706	0.262583	0.000350063	1	4.65205e-06	9.19204e-08
2	0	0	1	0	8.8155	0.257706	0.257567	0.00033933	1	4.68621e-06	8.74003e-08
2	0	0	1	0	8.9155	0.252706	0.252569	0.000328143	1	4.71929e-06	8.28787e-08
2	0	0	1	0	9.0155	0.247706	0.247561	0.000318467	1	4.75148e-06	7.88399e-08
2	0	0	1	0	9.1155	0.242705	0.242553	0.000312728	1	4.78282e-06	7.5853e-08
2	0	0	1	0	9.2155	0.237705	0.237539	0.000304707	1	4.81338e-06	7.23799e-08
2	0	0	1	0	9.3155	0.232705	0.232533	0.000296901	1	4.84323e-06	6.90395e-08
2	0	0	1	0	9.4155	0.227705	0.227551	0.000289678	1	4.87242e-06	6.59166e-08
2	0	0	1	0	9.5155	0.222705	0.222509	0.000285895	1	4.901e-06	6.36141e-08
2	0	0	1	0	9.6155	0.217705	0.217567	0.000277783	1	4.92898e-06	6.04364e-08
2	0	0	1	0	9.7155	0.212705	0.212533	0.000273919	1	4.95639e-06	5.82168e-08
2	0	0	1	0	9.8155	0.207705	0.207545	0.00026742	1	4.98327e-06	5.55017e-08
2	0	0	1	0	9.9155	0.202704	0.202547	0.000262783	1	5.00963e-06	5.32259e-08
2	0	0	1	0	10.0155	0.197704	0.197548	0.000258798	1	5.03549e-06	5.11251e-08
2	0	0	1	0	10.1155	0.192704	0.192542	0.000253349	1	5.06086e-06	4.87804e-08
2	0	0	1	0	10.2155	0.187704	0.187508	0.000248952	1	5.08574e-06	4.66805e-08
2	0	0	1	0	10.3155	0.182704	0.182516	0.000243227	1	5.11014e-06	4.43928e-08
2	0	0	1	0	10.4155	0.177704	0.177573	0.000238594	1	5.13407e-06	4.2368e-08
2	0	0	1	0	10.5155	0.172704	0.172581	0.000233966	1	5.15752e-06	4.03782e-08
2	0	0	1	0	10.6155	0.167703	0.167523	0.000228969	1	5.1805e-06	3.83577e-08
2	0	0	1	0	10.7155	0.162703	0.162592	0.00022473	1	5.20297e-06	3.65392e-08
2	0	0	1	0	10.8155	0.157703	0.157553	0.000219625	1	5.22496e-06	3.46025e-08
2	0	0	1	0	10.9155	0.152703	0.152572	0.000210975	1	5.2464e-06	3.2189e-08
2	0	0	1	0	11.0155	0.147703	0.147604	0.000207537	1	5.26729e-06	3.06333e-08
2	0	0	1	0	11.1155	0.142703	0.142483	0.000203017	1	5.28761e-06	2.89266e-08
2	0	0	1	0	11.2155	0.137703	0.137482	0.000194175	1	5.30726e-06	2.66954e-08
2	0	0	1	0	11.3155	0.132703	0.132565	0.000187524	1	5.32621e-06	2.48591e-08
2	0	0	1	0	11.4155	0.127702	0.127491	0.000179213	1	5.34437e-06	2.28481e-08
2	0	0	1	0	11.5155	0.122702	0.122542	0.00016965	1	5.3616e-06	2.07893e-08
2	0	0	1	0	11.6155	0.117702	0.117575	0.000159166	1	5.37775e-06	1.87139e-08
2	0	0	1	0	11.7155	0.112702	0.112591	0.000143034	1	5.39265e-06	1.61043e-08
2	0	0	1	0	11.8155	0.107702	0.107579	0.000127499	1	5.40604e-06	1.37161e-08
2	0	0	1	0	11.9155	0.102702	0.102567	0.000107028	1	5.41756e-06	1.09776e-08
2	0	0	1	0	12.0155	0.0977016	0.0975393	8.23918e-05	1	5.42682e-06	8.03644e-09
2	0	0	1	0	12.1155	0.0927015	0.0925376	5.14693e-05	1	5.43326e-06	4.76285e-09
2	0	0	1	0	12.2155	0.0877013	0.0874893	1.21847e-05	1	5.43622e-06	1.06603e-09
2	0	0	1	0	12.3155	0.0827012	0.0824813	-3.4782e-05	1	5.4349e-06	-2.86887e-09
2	0	0	1	0	12.4155	0.0777011	0.0775496	-9.16617e-05	1	5.42835e-06	-7.10833e-09
2	0	0	1	0	12.5155	0.0727009	0.0725363	-0.000161366	1	5.41548e-06	-1.17048e-08
2	0	0	1	0	12.6155	0.0677008	0.067559	-0.000241738	1	5.39521e-06	-1.63316e-08
2	0	0	1	0	12.7155	0.0627007	0.0625414	-0.000331233	1	5.36646e-06	-2.07158e-08
2	0	0	1	0	12.8155	0.0577005	0.0575927	-0.000426955	1	5.32832e-06	-2.45895e-08
2	0	0	1	0	12.9155	0.0527004	0.052519	-0.000526958	1	5.28035e-06	-2.76753e-08
2	0	0	1	0	13.0155	0.0477003	0.0474749	-0.000623962	1	5.22246e-06	-2.96225e-08
2	0	0	1	0	13.1155	0.0427001	0.0425178	-0.000707049	1	5.15559e-06	-3.00622e-08
2	0	0	1	0	13.2155	0.0377	0.0375384	-0.000774457	1	5.0811e-06	-2.90718e-08
2	0	0	1	0	13.3155	0.0326999	0.0325367	-0.000819385	1	5.00096e-06	-2.66601e-08
2	0	0	1	0	13.4155	0.0276997	0.027535	-0.000840564	1	4.91749e-06	-2.3145e-08
2	0	0	1	0	13.5155	0.0226996	0.0225567	-0.000840446	1	4.83294e-06	-1.89577e-08
2	0	0	1	0	13.6155	0.0176995	0.0175285	-0.000824409	1	4.74928e-06	-1.44507e-08
2	0	0	1	0	13.7155	0.0126993	0.0125576	-0.000795807	1	4.66802e-06	-9.99343e-09
2	0	0	1	0	13.8155	0.00769921	0.00753473	-0.000758453	1	4.59009e-06	-5.71474e-09
2	0	0	1	0	13.9155	0.00269908	0.0025161	-0.000717695	1	4.51605e-06	-1.80579e-09
2	0	0	1	0	14.0155	-0.00230105	-0.00254811	-0.000678796	1	4.44598e-06	1.72965e-09
2	0	0	1	0	14.1155	-0.00730119	-0.00750844	-0.000640288	1	4.37987e-06	4.80757e-09
2	0	0	1	0	14.2155	-0.0123013	-0.0125334	-0.000605485	1	4.31749e-06	7.58881e-09
2	0	0	1	0	14.3155	-0.0173015	-0.0175022	-0.000570014	1	4.2585e-06	9.97652e-09
2	0	0	1	0	14.4155	-0.0223016	-0.0224891	-0.000542432	1	4.20258e-06	1.21988e-08
2	0	0	1	0	14.5155	-0.0273017	-0.0274907	-0.000516061	1	4.14942e-06	1.41869e-08
2	0	0	1	0	14.6155	-0.0323019	-0.032555	-0.000493868	1	4.09874e-06	1.60779e-08
2	0	0	1	0	14.7155	-0.037302	-0.0374803	-0.000470211	1	4.05026e-06	1.76236e-08
2	0	0	1	0	14.8155	-0.0423021	-0.0424756	-0.000453153	1	4.00372e-06	1.92479e-08
2	0	0	1	0	14.9155	-0.0473023	-0.0474836	-0.000437478	1	3.95896e-06	2.0773e-08
2	0	0	1	0	15.0155	-0.0523024	-0.0525224	-0.000424839	1	3.91577e-06	2.23136e-08
2	0	0	1	0	15.1155	-0.0573025	-0.0574838	-0.000408087	1	3.87401e-06	2.34584e-08
2	0	0	1	0	15.2155	-0.0623027	-0.0625162	-0.000395118	1	3.83355e-06	2.47013e-08
2	0	0	1	0	15.3155	-0.0673028	-0.0675009	-0.000385034	1	3.79427e-06	2.59901e-08
2	0	0	1	0	15.4155	-0.0723029	-0.0724771	-0.000373769	1	3.75608e-06	2.70897e-08
2	0	0	1	0	15.5155	-0.0773031	-0.0774841	-0.000364379	1	3.71888e-06	2.82336e-08
2	0	0	1	0	15.6155	-0.0823032	-0.082543	-0.000355088	1	3.68257e-06	2.931e-08
2	0	0	1	0	15.7155	-0.0873033	-0.0874525	-0.000347885	1	3.64711e-06	3.04234e-08
2	0	0	1	0	15.8155	-0.0923035	-0.092523	-0.000341414	1	3.61241e-06	3.15887e-08
2	0	0	1	0	15.9155	-0.0973036	-0.0974378	-0.000333225	1	3.57845e-06	3.24687e-08
2	0	0	0	0	16.0157	-0.102304	-0.102479	-0.000326746	1	3.54511e-06	3.34845e-08
2	0	0	0	0	16.1157	-0.107304	-0.107467	-0.000320391	1	3.51243e-06	3.44313e-08
2	0	0	0	0	16.2157	-0.112304	-0.112545	-0.000315166	1	3.48032e-06	3.54702e-08
2	0	0	0	0	16.3157	-0.117304	-0.11757	-0.000310207	1	3.44875e-06	3.64709e-08
2	0	0	0	0	16.4157	-0.122304	-0.122469	-0.000304813	1	3.41769e-06	3.73302e-08
2	0	0	0	0	16.5157	-0.127304	-0.127463	-0.00030096	1	3.3871e-06	3.83612e-08
2	0	0	0	0	16.6157	-0.132305	-0.13246	-0.000296643	1	3.35693e-06	3.92934e-08
2	0	0	0	0	16.7157	-0.137305	-0.137451	-0.000291551	1	3.32717e-06	4.0074e-08
2	0	0	0	0	16.8157	-0.142305	-0.14246	-0.000288173	1	3.2978e-06	4.10532e-08
2	0	0	0	0	16.9157	-0.147305	-0.147521	-0.000286743	1	3.26876e-06	4.23006e-08
2	0	0	0	0	17.0157	-0.152305	-0.152513	-0.000282814	1	3.24006e-06	4.31329e-08
2	0	0	0	0	17.1157	-0.157305	-0.157551	-0.000279597	1	3.21161e-06	4.40509e-08
2	0	0	0	0	17.2157	-0.162305	-0.162461	-0.000277218	1	3.18347e-06	4.5037e-08
2	0	0	0	0	17.3157	-0.167306	-0.167496	-0.000276342	1	3.15555e-06	4.62862e-08
2	0	0	0	0	17.4157	-0.172306	-0.172561	-0.000274408	1	3.12786e-06	4.73522e-08
2	0	0	0	0	17.5157	-0.177306	-0.177493	-0.000270534	1	3.10034e-06	4.80179e-08
2	0	0	0	0	17.6157	-0.182306	-0.18248	-0.000269354	1	3.07297e-06	4.91517e-08
2	0	0	0	0	17.7157	-0.187306	-0.187569	-0.000268293	1	3.04574e-06	5.03232e-08
2	0	0	0	0	17.8157	-0.192306	-0.192491	-0.000267597	1	3.01862e-06	5.15099e-08
2	0	0	0	0	17.9157	-0.197306	-0.19752	-0.00026692	1	2.99155e-06	5.2722e-08
2	1	0	1	1	18.0051	-0.198206	-0.198332	-0.000145445	1	2.97162e-06	2.88464e-08
2	1	0	1	1	18.1051	-0.193206	-0.193404	-0.000119694	1	2.95888e-06	2.31494e-08
2	1	0	1	1	18.2051	-0.188206	-0.188307	-0.000105816	1	2.94802e-06	1.99259e-08
2	1	0	1	1	18.3051	-0.183206	-0.183356	-9.37373e-05	1	2.93843e-06	1.71873e-08
2	1	0	1	1	18.4051	-0.178206	-0.178375	-8.54582e-05	1	2.92986e-06	1.52436e-08
2	1	0	1	1	18.5051	-0.173206	-0.173308	-7.92051e-05	1	2.92212e-06	1.37269e-08
2	1	0	1	1	18.6051	-0.168206	-0.168371	-7.14701e-05	1	2.91511e-06	1.20335e-08
2	1	0	1	1	18.7051	-0.163205	-0.163407	-6.53636e-05	1	2.90877e-06	1.06809e-08
2	1	0	1	1	18.8051	-0.158205	-0.158351	-5.9796e-05	1	2.903e-06	9.46878e-09
2	1	0	1	1	18.9051	-0.153205	-0.153383	-5.48077e-05	1	2.89778e-06	8.40655e-09
2	1	0	1	1	19.0051	-0.148205	-0.148342	-4.96003e-05	1	2.89303e-06	7.3578e-09
2	1	0	1	1	19.1051	-0.143205	-0.143345	-4.39161e-05	1	2.88872e-06	6.29517e-09
2	1	0	1	1	19.2051	-0.138205	-0.138337	-4.03303e-05	1	2.88483e-06	5.57919e-09
2	1	0	1	1	19.3051	-0.133205	-0.133372	-3.68505e-05	1	2.88134e-06	4.91481e-09
2	1	0	1	1	19.4051	-0.128204	-0.12837	-3.42786e-05	1	2.87821e-06	4.40035e-09
2	1	0	1	1	19.5051	-0.123204	-0.123349	-2.86562e-05	1	2.87543e-06	3.53472e-09
2	1	0	1	1	19.6051	-0.118204	-0.118365	-2.74568e-05	1	2.87297e-06	3.24991e-09
2	1	0	1	1	19.7051	-0.113204	-0.113304	-2.30461e-05	1	2.87084e-06	2.61121e-09
2	1	0	1	1	19.8051	-0.108204	-0.108342	-2.0264e-05	1	2.86899e-06	2.19545e-09
2	1	0	1	1	19.9051	-0.103204	-0.1034	-1.73477e-05	1	2.86742e-06	1.79375e-09
2	1	0	1	1	19.9951	-0.0987037	-0.0988912	-1.3829e-05	2	2.86623e-06	1.36757e-09
2	1	0	0	1	20.0953	-0.0937035	-0.0938121	-1.19655e-05	2	2.86516e-06	1.12251e-09
2	1	0	0	1	20.1953	-0.0887034	-0.0888073	-8.6641e-06	2	2.86436e-06	7.69435e-10
2	1	0	0	1	20.2953	-0.0837033	-0.0837791	-7.03371e-06	2	2.86378e-06	5.89278e-10
2	1	0	0	1	20.3953	-0.0787031	-0.0788167	-4.5166e-06	2	2.86344e-06	3.55983e-10
2	1	0	0	1	20.4953	-0.073703	-0.0738765	-2.50467e-06	2	2.86333e-06	1.85037e-10
2	1	0	0	1	20.5953	-0.0687029	-0.0688398	5.70621e-07	2	2.86344e-06	-3.92815e-11
2	1	0	0	1	20.6953	-0.0637027	-0.0638679	1.54744e-06	2	2.86377e-06	-9.88315e-11
2	1	0	0	1	20.7953	-0.0587026	-0.0588959	3.90381e-06	2	2.86432e-06	-2.29918e-10
2	1	0	0	1	20.8953	-0.0537024	-0.0538762	7.64504e-06	2	2.86507e-06	-4.11885e-10
2	1	0	0	1	20.9953	-0.0487023	-0.0489095	7.41717e-06	2	2.8661e-06	-3.6277e-10
2	1	0	0	1	21.0953	-0.0437022	-0.0438845	1.04483e-05	2	2.86735e-06	-4.58519e-10
2	1	0	0	1	21.1953	-0.038702	-0.038868	1.46453e-05	2	2.86883e-06	-5.69232e-10
2	1	0	0	1	21.2953	-0.0337019	-0.0338525	1.63604e-05	2	2.8706e-06	-5.53842e-10
2	1	0	0	1	21.3953	-0.0287018	-0.0288551	1.92768e-05	2	2.87267e-06	-5.56233e-10
2	1	0	0	1	21.4953	-0.0237016	-0.0238418	2.41555e-05	2	2.87514e-06	-5.75911e-10
2	1	0	0	1	21.5953	-0.0187015	-0.0188793	2.93116e-05	2	2.87802e-06	-5.53384e-10
2	1	0	0	1	21.6953	-0.0137014	-0.0138787	3.64232e-05	2	2.88145e-06	-5.05507e-10
2	1	0	0	1	21.7953	-0.00870123	-0.00886328	4.10688e-05	2	2.88556e-06	-3.64004e-10
2	1	0	0	1	21.8953	-0.00370109	-0.00387221	5.1789e-05	2	2.89052e-06	-2.00538e-10
2	1	0	0	1	21.9953	0.00129904	0.00125243	6.45512e-05	2	2.89667e-06	8.08461e-11
2	1	0	0	1	22.0953	0.00629917	0.00617883	8.18301e-05	2	2.90419e-06	5.05614e-10
2	1	0	0	1	22.1953	0.0112993	0.0111328	0.000102744	2	2.91358e-06	1.14383e-09
2	1	0	0	1	22.2953	0.0162994	0.0161514	0.000130191	2	2.9254e-06	2.10276e-09
2	1	0	0	1	22.3953	0.0212996	0.021169	0.000164747	2	2.94032e-06	3.48752e-09
2	1	0	0	1	22.4953	0.0262997	0.0261844	0.000208551	2	2.95918e-06	5.4608e-09
2	1	0	0	1	22.5953	0.0312998	0.0311649	0.000262075	2	2.98293e-06	8.16754e-09
2	1	0	0	1	22.6953	0.0363	0.0362079	0.000327751	2	3.01264e-06	1.18672e-08
2	1	0	0	1	22.7953	0.0413001	0.0412191	0.000403383	2	3.04943e-06	1.66271e-08
2	1	0	0	1	22.8953	0.0463002	0.0461116	0.000488463	2	3.09432e-06	2.25238e-08
2	1	0	0	1	22.9953	0.0513004	0.0511928	0.00058171	2	3.14815e-06	2.97793e-08
2	1	0	0	1	23.0953	0.0563005	0.0561934	0.000674767	2	3.21138e-06	3.79174e-08
2	1	0	0	1	23.1953	0.0613006	0.0611473	0.000768479	2	3.28395e-06	4.69905e-08
2	1	0	0	1	23.2953	0.0663008	0.0661479	0.000850544	2	3.36533e-06	5.62618e-08
2	1	0	0	1	23.3953	0.0713009	0.07121	0.000920469	2	3.45436e-06	6.55466e-08
2	1	0	0	1	23.4953	0.076301	0.0761714	0.000972297	2	3.54951e-06	7.40612e-08
2	1	0	0	1	23.5953	0.0813012	0.0811858	0.00100581	2	3.64896e-06	8.16578e-08
2	1	0	0	1	23.6953	0.0863013	0.0860666	0.00102244	2	3.75083e-06	8.79976e-08
2	1	0	0	1	23.7953	0.0913014	0.091134	0.00102071	2	3.85343e-06	9.30217e-08
2	1	0	0	1	23.8953	0.0963016	0.0961601	0.00100568	2	3.95527e-06	9.67061e-08
2	1	0	0	1	23.9953	0.101302	0.101123	0.000985891	2	4.05529e-06	9.96958e-08
2	1	0	0	1	24.0953	0.106302	0.106114	0.000957093	2	4.15274e-06	1.01561e-07
2	1	0	0	1	24.1953	0.111302	0.111184	0.00092633	2	4.2472e-06	1.02993e-07
2	1	0	0	1	24.2953	0.116302	0.116258	0.000893779	2	4.33852e-06	1.03909e-07
2	1	0	0	1	24.3953	0.121302	0.121225	0.000863194	2	4.42662e-06	1.0464e-07
2	1	0	0	1	24.4953	0.126302	0.126146	0.000832684	2	4.51166e-06	1.0504e-07
2	1	0	0	1	24.5953	0.131303	0.131163	0.000804392	2	4.5938e-06	1.05507e-07
2	1	0	0	1	24.6953	0.136303	0.136197	0.00077846	2	4.67322e-06	1.06024e-07
2	1	0	0	1	24.7953	0.141303	0.141169	0.000754972	2	4.75014e-06	1.06578e-07
2	1	0	0	1	24.8953	0.146303	0.146162	0.00073295	2	4.82477e-06	1.07129e-07
2	1	0	0	1	24.9953	0.151303	0.151204	0.000713832	2	4.89731e-06	1.07934e-07
2	1	0	0	1	25.0953	0.156303	0.156171	0.000694527	2	4.96799e-06	1.08465e-07
2	1	0	0	1	25.1953	0.161303	0.161209	0.000678453	2	5.03691e-06	1.09373e-07
2	1	0	0	1	25.2953	0.166303	0.166175	0.000662946	2	5.10425e-06	1.10165e-07
2	1	0	0	1	25.3953	0.171304	0.171234	0.000648902	2	5.17015e-06	1.11114e-07
2	1	0	0	1	25.4953	0.176304	0.176188	0.000636708	2	5.23473e-06	1.1218e-07
2	1	0	0	1	25.5953	0.181304	0.181168	0.00062387	2	5.29813e-06	1.13025e-07
2	1	0	0	1	25.6953	0.186304	0.186182	0.000616017	2	5.36042e-06	1.14691e-07
2	1	0	0	1	25.7953	0.191304	0.191185	0.00060539	2	5.42173e-06	1.15742e-07
2	1	0	0	1	25.8953	0.196304	0.196173	0.000597453	2	5.48215e-06	1.17204e-07
2	1	0	0	1	25.9953	0.201304	0.201161	0.000592624	2	5.54192e-06	1.19213e-07
2	1	0	0	1	26.0953	0.206304	0.20618	0.000585836	2	5.60109e-06	1.20787e-07
2	1	0	0	1	26.1953	0.211305	0.211229	0.000575366	2	5.65934e-06	1.21534e-07
2	1	0	0	1	26.2953	0.216305	0.216195	0.000566912	2	5.71684e-06	1.22564e-07
2	1	0	0	1	26.3953	0.221305	0.221172	0.000562763	2	5.77373e-06	1.24467e-07
2	1	0	0	1	26.4953	0.226305	0.226195	0.000558499	2	5.8301e-06	1.2633e-07
2	1	0	0	1	26.5953	0.231305	0.231183	0.000554277	2	5.88606e-06	1.28139e-07
2	1	0	0	1	26.6953	0.236305	0.236222	0.000550547	2	5.94166e-06	1.30051e-07
2	1	0	0	1	26.7953	0.241305	0.241204	0.000548659	2	5.99692e-06	1.32339e-07
2	1	0	0	1	26.8953	0.246306	0.246148	0.000544288	2	6.05191e-06	1.33975e-07
2	1	0	0	1	26.9953	0.251306	0.251179	0.000544693	2	6.10668e-06	1.36815e-07
2	1	0	0	1	27.0953	0.256306	0.256221	0.000542377	2	6.16133e-06	1.38968e-07
2	1	0	0	1	27.1953	0.261306	0.261201	0.000541773	2	6.2158e-06	1.41512e-07
2	1	0	0	1	27.2953	0.266306	0.266173	0.000540431	2	6.27022e-06	1.43848e-07
2	1	0	0	1	27.3953	0.271306	0.271145	0.000540696	2	6.32462e-06	1.46607e-07
2	1	0	1	1	27.4955	0.276306	0.276163	0.000541648	2	6.37916e-06	1.49583e-07
2	1	0	1	1	27.5955	0.281306	0.281163	0.000542801	2	6.4337e-06	1.52616e-07
2	1	0	1	1	27.6955	0.286307	0.286205	0.000543711	2	6.4884e-06	1.55613e-07
2	1	0	1	1	27.7955	0.291307	0.291162	0.000547429	2	6.54334e-06	1.59391e-07
2	1	0	1	1	27.8955	0.296307	0.296202	0.000549695	2	6.59857e-06	1.62821e-07
2	0	0	0	1	27.9849	0.299207	0.299047	0.000443252	2	6.64647e-06	1.32553e-07
2	0	0	0	1	28.0849	0.294207	0.294004	0.000399682	2	6.68799e-06	1.17508e-07
2	0	0	0	1	28.1849	0.289207	0.289095	0.000374022	2	6.72631e-06	1.08128e-07
2	0	0	0	1	28.2849	0.284207	0.284118	0.000353424	2	6.76236e-06	1.00414e-07
2	0	0	0	1	28.3849	0.279206	0.278983	0.000336742	2	6.79664e-06	9.39453e-08
2	0	0	0	1	28.4849	0.274206	0.274007	0.000325874	2	6.82959e-06	8.92915e-08
2	0	0	1	1	28.5851	0.269206	0.269039	0.000314964	2	6.86142e-06	8.47376e-08
2	0	0	1	1	28.6851	0.264206	0.264054	0.000305885	2	6.8922e-06	8.07702e-08
2	0	0	1	1	28.7851	0.259206	0.259099	0.000298168	2	6.92208e-06	7.7255e-08
2	0	0	1	1	28.8851	0.254206	0.254018	0.000289753	2	6.95117e-06	7.36023e-08
2	0	0	1	1	28.9851	0.249206	0.249055	0.000282063	2	6.97953e-06	7.02494e-08
2	0	0	1	1	29.0851	0.244205	0.244009	0.000276277	2	7.00719e-06	6.74141e-08
2	0	0	1	1	29.1851	0.239205	0.239035	0.000270497	2	7.0342e-06	6.46583e-08
2	0	0	1	1	29.2851	0.234205	0.233995	0.000263545	2	7.06064e-06	6.16682e-08
2	0	0	1	1	29.3851	0.229205	0.229042	0.000259061	2	7.08652e-06	5.93361e-08
2	0	0	1	1	29.4851	0.224205	0.224074	0.000253586	2	7.11189e-06	5.68218e-08
2	0	0	1	1	29.5851	0.219205	0.219109	0.000248555	2	7.1368e-06	5.44606e-08
2	0	0	1	1	29.6851	0.214205	0.214036	0.000243503	2	7.16121e-06	5.21185e-08
2	0	0	1	1	29.7851	0.209205	0.209081	0.000239361	2	7.18518e-06	5.00459e-08
2	0	0	1	1	29.8851	0.204204	0.204093	0.000235666	2	7.20871e-06	4.80978e-08
2	0	0	1	1	29.9851	0.199204	0.199047	0.000229939	2	7.23178e-06	4.57687e-08
2	0	0	1	1	30.0851	0.194204	0.193993	0.00022642	2	7.25444e-06	4.39238e-08
2	0	0	1	1	30.1851	0.189204	0.188975	0.000222766	2	7.27665e-06	4.20971e-08
2	0	0	1	1	30.2851	0.184204	0.184033	0.000220059	2	7.29847e-06	4.04981e-08
2	0	0	1	1	30.3851	0.179204	0.179059	0.000214619	2	7.31985e-06	3.84294e-08
2	0	0	1	1	30.4851	0.174204	0.174083	0.000210281	2	7.34079e-06	3.66064e-08
2	0	0	1	1	30.5851	0.169204	0.169007	0.000205649	2	7.36129e-06	3.47561e-08
2	0	0	1	1	30.6851	0.164203	0.163984	0.000201253	2	7.38135e-06	3.30021e-08
2	0	0	1	1	30.7851	0.159203	0.159055	0.000196225	2	7.40097e-06	3.12107e-08
2	0	0	1	1	30.8851	0.154203	0.154065	0.00019052	2	7.42012e-06	2.93525e-08
2	0	0	1	1	30.9851	0.149203	0.148999	0.000187021	2	7.43871e-06	2.78659e-08
2	0	0	1	1	31.0851	0.144203	0.144088	0.000181114	2	7.4568e-06	2.60964e-08
2	0	0	1	1	31.1851	0.139203	0.139017	0.000174193	2	7.47429e-06	2.42158e-08
2	0	0	1	1	31.2851	0.134203	0.134002	0.000167608	2	7.49113e-06	2.24599e-08
2	0	0	1	1	31.3851	0.129202	0.129004	0.000160687	2	7.50725e-06	2.07293e-08
2	0	0	1	1	31.4851	0.124202	0.124012	0.000149139	2	7.5225e-06	1.84949e-08
2	0	0	1	1	31.5851	0.119202	0.118978	0.00013868	2	7.53677e-06	1.64999e-08
2	0	0	1	1	31.6851	0.114202	0.114041	0.000125299	2	7.54989e-06	1.42893e-08
2	0	0	1	1	31.7851	0.109202	0.109019	0.00011158	2	7.56159e-06	1.21644e-08
2	0	0	1	1	31.8851	0.104202	0.104004	9.45747e-05	2	7.57161e-06	9.83614e-09
2	0	0	1	1	31.9851	0.0992016	0.0990648	6.96738e-05	2	7.57955e-06	6.90222e-09
2	0	0	1	1	32.0851	0.0942015	0.0940218	4.34675e-05	2	7.58495e-06	4.0869e-09
2	0	0	1	1	32.1851	0.0892014	0.0890318	8.10253e-06	2	7.5872e-06	7.21383e-10
2	0	0	1	1	32.2851	0.0842012	0.0840715	-3.44658e-05	2	7.58554e-06	-2.89759e-09
2	0	0	1	1	32.3851	0.0792011	0.0790645	-8.74948e-05	2	7.57913e-06	-6.91773e-09
2	0	0	1	1	32.4851	0.074201	0.0740692	-0.000150301	2	7.56695e-06	-1.11327e-08
2	0	0	1	1	32.5851	0.0692009	0.0690219	-0.000224099	2	7.54793e-06	-1.54678e-08
2	0	0	1	1	32.6851	0.0642007	0.064069	-0.000307411	2	7.52099e-06	-1.96955e-08
2	0	0	1	1	32.7851	0.0592006	0.0591214	-0.000401256	2	7.48514e-06	-2.37228e-08
2	0	0	1	1	32.8851	0.0542004	0.0540297	-0.000499855	2	7.43968e-06	-2.7007e-08
2	0	0	1	1	32.9851	0.0492003	0.0490216	-0.000598012	2	7.38434e-06	-2.93155e-08
2	0	0	1	1	33.0851	0.0442002	0.0440995	-0.000690027	2	7.31946e-06	-3.04298e-08
2	0	0	1	1	33.1851	0.0392	0.0390512	-0.000765883	2	7.24616e-06	-2.99086e-08
2	0	0	1	1	33.2851	0.0341999	0.034023	-0.00082541	2	7.16598e-06	-2.80829e-08
2	0	0	1	1	33.3851	0.0291998	0.0289906	-0.00086033	2	7.08113e-06	-2.49415e-08
2	0	0	1	1	33.4851	0.0241997	0.024043	-0.000875113	2	6.9938e-06	-2.10403e-08
2	0	0	1	1	33.5851	0.0191995	0.0191155	-0.000868968	2	6.90615e-06	-1.66108e-08
2	0	0	1	1	33.6851	0.0141994	0.0139856	-0.000846694	2	6.81997e-06	-1.18415e-08
2	0	0	1	1	33.7851	0.00919925	0.00900512	-0.000814819	2	6.73653e-06	-7.33754e-09
2	0	0	1	1	33.8851	0.00419912	0.00403102	-0.000775866	2	6.65669e-06	-3.12753e-09
2	0	0	1	1	33.9851	-0.000801014	-0.000965348	-0.000742678	2	6.58076e-06	7.16942e-10
2	0	0	1	1	34.0851	-0.00580115	-0.00599034	-0.000697163	2	6.50881e-06	4.17624e-09
2	0	0	1	1	34.1851	-0.0108013	-0.0110217	-0.000658786	2	6.44077e-06	7.26094e-09
2	0	0	1	1	34.2851	-0.0158014	-0.0159969	-0.000623502	2	6.37634e-06	9.97408e-09
2	0	0	1	1	34.3851	-0.0208016	-0.0209773	-0.000594046	2	6.31524e-06	1.24615e-08
2	0	0	1	1	34.4851	-0.0258017	-0.0259376	-0.000563941	2	6.25713e-06	1.46273e-08
2	0	0	1	1	34.5851	-0.0308018	-0.030969	-0.000538477	2	6.2017e-06	1.66761e-08
2	0	0	1	1	34.6851	-0.035802	-0.0359961	-0.000516143	2	6.14866e-06	1.85791e-08
2	0	0	1	1	34.7851	-0.0408021	-0.0410222	-0.000497686	2	6.09777e-06	2.04161e-08
2	0	0	1	1	34.8851	-0.0458022	-0.0460111	-0.000478421	2	6.04881e-06	2.20127e-08
2	0	0	1	1	34.9851	-0.0508024	-0.0509905	-0.000462299	2	6.00157e-06	2.35729e-08
2	0	0	1	1	35.0851	-0.0558025	-0.0560314	-0.000445972	2	5.95587e-06	2.49885e-08
2	0	0	1	1	35.1851	-0.0608026	-0.061049	-0.000433526	2	5.9116e-06	2.64664e-08
2	0	0	1	1	35.2851	-0.0658028	-0.066003	-0.000419784	2	5.86863e-06	2.7707e-08
2	0	0	1	1	35.3851	-0.0708029	-0.0710226	-0.000410115	2	5.82683e-06	2.91274e-08
2	0	0	1	1	35.4851	-0.075803	-0.0760105	-0.000398843	2	5.78613e-06	3.03163e-08
2	0	0	1	1	35.5851	-0.0808032	-0.0810281	-0.000388284	2	5.74642e-06	3.14619e-08
2	0	0	1	1	35.6851	-0.0858033	-0.0859715	-0.000381264	2	5.70762e-06	3.27778e-08
2	0	0	1	1	35.7851	-0.0908034	-0.0909869	-0.00037298	2	5.66968e-06	3.39363e-08
2	0	0	1	1	35.8851	-0.0958036	-0.0960395	-0.000364711	2	5.63254e-06	3.50267e-08
2	0	0	0	1	35.9853	-0.100804	-0.101016	-0.000357707	2	5.59609e-06	3.61341e-08
2	0	0	0	1	36.0853	-0.105804	-0.105959	-0.000351576	2	5.56036e-06	3.72527e-08
2	0	0	0	1	36.1853	-0.110804	-0.110951	-0.000344218	2	5.52529e-06	3.81913e-08
2	0	0	0	1	36.2853	-0.115804	-0.115998	-0.000338357	2	5.49082e-06	3.92488e-08
2	0	0	0	1	36.3853	-0.120804	-0.120985	-0.000334667	2	5.45689e-06	4.04897e-08
2	0	0	0	1	36.4853	-0.125804	-0.125984	-0.000328006	2	5.4235e-06	4.13234e-08
2	0	0	0	1	36.5853	-0.130805	-0.130984	-0.000323141	2	5.3906e-06	4.23264e-08
2	0	0	0	1	36.6853	-0.135805	-0.135986	-0.000318073	2	5.35817e-06	4.32535e-08
2	0	0	0	1	36.7853	-0.140805	-0.140954	-0.000313804	2	5.32618e-06	4.42318e-08
2	0	0	0	1	36.8853	-0.145805	-0.146	-0.000309859	2	5.29457e-06	4.52395e-08
2	0	0	0	1	36.9853	-0.150805	-0.150993	-0.000307738	2	5.26334e-06	4.64663e-08
2	0	0	0	1	37.0853	-0.155805	-0.156016	-0.00030402	2	5.23243e-06	4.74319e-08
2	0	0	0	1	37.1853	-0.160805	-0.160948	-0.000301001	2	5.20187e-06	4.84454e-08
2	0	0	0	1	37.2853	-0.165805	-0.165985	-0.000298434	2	5.17159e-06	4.95358e-08
2	0	0	0	1	37.3853	-0.170806	-0.170917	-0.000295115	2	5.14155e-06	5.04403e-08
2	0	0	0	1	37.4853	-0.175806	-0.175964	-0.000291906	2	5.11176e-06	5.1365e-08
2	0	0	0	1	37.5853	-0.180806	-0.18102	-0.000292346	2	5.08215e-06	5.29204e-08
2	0	0	0	1	37.6853	-0.185806	-0.185998	-0.000290558	2	5.05272e-06	5.40433e-08
2	0	0	0	1	37.7853	-0.190806	-0.191017	-0.000288378	2	5.02342e-06	5.50852e-08
2	0	0	0	1	37.8853	-0.195806	-0.195994	-0.000287287	2	4.99421e-06	5.63066e-08
2	1	0	1	0	37.9747	-0.199706	-0.199851	-0.000184071	2	4.96882e-06	3.67867e-08
2	1	0	1	0	38.0747	-0.194706	-0.194851	-0.000142486	2	4.95339e-06	2.77635e-08
2	1	0	1	0	38.1747	-0.189706	-0.189875	-0.000126974	2	4.94029e-06	2.41092e-08
2	1	0	1	0	38.2747	-0.184706	-0.184827	-0.000113777	2	4.92856e-06	2.10291e-08
2	1	0	1	0	38.3747	-0.179706	-0.179855	-0.000104373	2	4.91792e-06	1.8772e-08
2	1	0	1	0	38.4747	-0.174706	-0.174886	-9.66059e-05	2	4.90816e-06	1.6895e-08
2	1	0	1	0	38.5747	-0.169706	-0.169859	-8.92506e-05	2	4.89918e-06	1.516e-08
2	1	0	1	0	38.6747	-0.164705	-0.164857	-8.38083e-05	2	4.89088e-06	1.38164e-08
2	1	0	1	0	38.7747	-0.159705	-0.159858	-7.77178e-05	2	4.88318e-06	1.24238e-08
2	1	0	1	0	38.8747	-0.154705	-0.154844	-6.67255e-05	2	4.87606e-06	1.0332e-08
2	1	0	1	0	38.9747	-0.149705	-0.14988	-6.69128e-05	2	4.86944e-06	1.00289e-08
2	1	0	1	0	39.0747	-0.144705	-0.144867	-6.26999e-05	2	4.8633e-06	9.08313e-09
2	1	0	1	0	39.1747	-0.139705	-0.139813	-5.76922e-05	2	4.8576e-06	8.06612e-09
2	1	0	1	0	39.2747	-0.134705	-0.134836	-5.44968e-05	2	4.85232e-06	7.34812e-09
2	1	0	1	0	39.3747	-0.129704	-0.129832	-4.83197e-05	2	4.84743e-06	6.27344e-09
2	1	0	1	0	39.4747	-0.124704	-0.124866	-4.5414e-05	2	4.84291e-06	5.67068e-09
2	1	0	1	0	39.5747	-0.119704	-0.11983	-4.37235e-05	2	4.83876e-06	5.23938e-09
2	1	0	1	0	39.6747	-0.114704	-0.11489	-4.02614e-05	2	4.83493e-06	4.62561e-09
2	1	0	1	0	39.7747	-0.109704	-0.109802	-3.65308e-05	2	4.83142e-06	4.01115e-09
2	1	0	1	0	39.8747	-0.104704	-0.104845	-3.50717e-05	2	4.82822e-06	3.67709e-09
2	1	0	0	0	39.9692	-0.0999787	-0.100296	-4.31388e-05	3	4.82544e-06	4.32665e-09
2	1	0	0	0	40.0649	-0.0952036	-0.0953589	-2.72837e-05	3	4.82289e-06	2.60174e-09
2	1	0	0	0	40.1649	-0.0902034	-0.090353	-2.65983e-05	3	4.82049e-06	2.40324e-09
2	1	0	0	0	40.2649	-0.0852033	-0.0853375	-2.43126e-05	3	4.81835e-06	2.07478e-09
2	1	0	0	0	40.3649	-0.0802032	-0.0803581	-2.00203e-05	3	4.81645e-06	1.60879e-09
2	1	0	0	0	40.4649	-0.075203	-0.0753893	-1.83987e-05	3	4.81481e-06	1.38707e-09
2	1	0	0	0	40.5649	-0.0702029	-0.0704173	-1.66323e-05	3	4.81338e-06	1.1712e-09
2	1	0	0	0	40.6649	-0.0652028	-0.0653743	-1.40392e-05	3	4.81218e-06	9.17805e-10
2	1	0	0	0	40.7649	-0.0602026	-0.060362	-9.73277e-06	3	4.81124e-06	5.87489e-10
2	1	0	0	0	40.8649	-0.0552025	-0.055372	-1.01708e-05	3	4.81051e-06	5.63179e-10
2	1	0	0	0	40.9649	-0.0502023	-0.050294	-7.1397e-06	3	4.81006e-06	3.59084e-10
2	1	0	0	0	41.0649	-0.0452022	-0.0453528	-4.5166e-06	3	4.80981e-06	2.0484e-10
2	1	0	0	0	41.1649	-0.0402021	-0.0403755	-1.32296e-06	3	4.80983e-06	5.3415e-11
2	1	0	0	0	41.2649	-0.0352019	-0.0353653	1.55274e-06	3	4.81015e-06	-5.49131e-11
2	1	0	0	0	41.3649	-0.0302018	-0.0303647	5.22331e-06	3	4.81078e-06	-1.58604e-10
2	1	0	0	0	41.4649	-0.0252017	-0.0253567	7.48253e-06	3	4.81177e-06	-1.89732e-10
2	1	0	0	0	41.5649	-0.0202015	-0.0203328	1.32728e-05	3	4.81321e-06	-2.69872e-10
2	1	0	0	0	41.6649	-0.0152014	-0.0153777	1.90719e-05	3	4.81516e-06	-2.93282e-10
2	1	0	0	0	41.7649	-0.0102013	-0.0103708	2.69818e-05	3	4.81778e-06	-2.79822e-10
2	1	0	0	0	41.8649	-0.00520113	-0.00536805	3.6568e-05	3	4.82122e-06	-1.96299e-10
2	1	0	0	0	41.9649	-0.000200998	-0.000367437	4.88003e-05	3	4.82575e-06	-1.7931e-11
2	1	0	0	0	42.0649	0.00479913	0.004683	6.4772e-05	3	4.83161e-06	3.03327e-10
2	1	0	0	0	42.1649	0.00979927	0.00965922	8.24201e-05	3	4.83919e-06	7.96114e-10
2	1	0	0	0	42.2649	0.0147994	0.0146747	0.000108384	3	4.84906e-06	1.5905e-09
2	1	0	0	0	42.3649	0.0197995	0.0196965	0.000142343	3	4.86177e-06	2.80366e-09
2	1	0	0	0	42.4649	0.0247997	0.0247204	0.000183755	3	4.87812e-06	4.54249e-09
2	1	0	0	0	42.5649	0.0297998	0.0297115	0.000231172	3	4.899e-06	6.86846e-09
2	1	0	0	0	42.6649	0.0347999	0.0346644	0.000291904	3	4.92539e-06	1.01187e-08
2	1	0	0	0	42.7649	0.0398001	0.0396989	0.000362309	3	4.95837e-06	1.43833e-08
2	1	0	0	0	42.8649	0.0448002	0.0446815	0.000442897	3	4.99892e-06	1.97893e-08
2	1	0	0	0	42.9649	0.0498003	0.0496185	0.000530161	3	5.04792e-06	2.63058e-08
2	1	0	0	0	43.0649	0.0548005	0.0546912	0.000624467	3	5.10608e-06	3.41528e-08
2	1	0	0	0	43.1649	0.0598006	0.0596886	0.000714781	3	5.17345e-06	4.26643e-08
2	1	0	0	0	43.2649	0.0648007	0.06472	0.00080182	3	5.24974e-06	5.18938e-08
2	1	0	0	0	43.3649	0.0698009	0.0696538	0.000876737	3	5.3341e-06	6.1068e-08
2	1	0	0	0	43.4649	0.074801	0.0746788	0.000936045	3	5.42522e-06	6.99027e-08
2	1	0	0	0	43.5649	0.0798011	0.0796476	0.000979295	3	5.52151e-06	7.79985e-08
2	1	0	0	0	43.6649	0.0848012	0.0846789	0.00100448	3	5.62112e-06	8.50583e-08
2	1	0	0	0	43.7649	0.0898014	0.0897113	0.00101076	3	5.72231e-06	9.06765e-08
2	1	0	0	0	43.8649	0.0948015	0.0946303	0.00100416	3	5.82354e-06	9.50235e-08
2	1	0	0	0	43.9649	0.0998016	0.0996617	0.000988251	3	5.92353e-06	9.84907e-08
2	1	0	0	0	44.0649	0.104802	0.104658	0.000962914	3	6.02138e-06	1.00777e-07
2	1	0	0	0	44.1649	0.109802	0.109666	0.000932443	3	6.1165e-06	1.02257e-07
2	1	0	0	0	44.2649	0.114802	0.114641	0.000903181	3	6.20857e-06	1.03542e-07
2	1	0	0	0	44.3649	0.119802	0.119644	0.000871603	3	6.29748e-06	1.04282e-07
2	1	0	0	0	44.4649	0.124802	0.124674	0.000840269	3	6.38325e-06	1.0476e-07
2	1	0	0	0	44.5649	0.129802	0.129642	0.000808919	3	6.46604e-06	1.0487e-07
2	1	0	0	0	44.6649	0.134803	0.134655	0.000783978	3	6.54597e-06	1.05567e-07
2	1	0	0	0	44.7649	0.139803	0.139725	0.000758959	3	6.62329e-06	1.06045e-07
2	1	0	0	0	44.8649	0.144803	0.144693	0.000736356	3	6.69817e-06	1.06545e-07
2	1	0	0	0	44.9649	0.149803	0.149637	0.000713557	3	6.77082e-06	1.06774e-07
2	1	0	0	0	45.0649	0.154803	0.154756	0.000694243	3	6.84149e-06	1.07438e-07
2	1	0	0	0	45.1649	0.159803	0.159694	0.000676413	3	6.91026e-06	1.08019e-07
2	1	0	0	0	45.2649	0.164803	0.164672	0.000661005	3	6.97733e-06	1.08849e-07
2	1	0	0	0	45.3649	0.169803	0.16965	0.000644487	3	7.04286e-06	1.09337e-07
2	1	0	0	0	45.4649	0.174804	0.174646	0.000631238	3	7.10697e-06	1.10243e-07
2	1	0	0	0	45.5649	0.179804	0.179686	0.000619399	3	7.16977e-06	1.11297e-07
2	1	0	0	0	45.6649	0.184804	0.184736	0.00060937	3	7.23137e-06	1.12572e-07
2	1	0	0	0	45.7649	0.189804	0.189713	0.000597134	3	7.29186e-06	1.13284e-07
2	1	0	0	0	45.8649	0.194804	0.194712	0.000586733	3	7.35135e-06	1.14244e-07
2	1	0	0	0	45.9649	0.199804	0.199671	0.000578836	3	7.40992e-06	1.15576e-07
2	1	0	0	0	46.0649	0.204804	0.204752	0.000571314	3	7.46766e-06	1.16978e-07
2	1	0	0	0	46.1649	0.209805	0.209675	0.000562148	3	7.5246e-06	1.17868e-07
2	1	0	0	0	46.2649	0.214805	0.2147	0.000554938	3	7.58083e-06	1.19145e-07
2	1	0	0	0	46.3649	0.219805	0.219705	0.000550282	3	7.63643e-06	1.209e-07
2	1	0	0	0	46.4649	0.224805	0.224647	0.000543455	3	7.69143e-06	1.22086e-07
2	1	0	0	0	46.5649	0.229805	0.229701	0.000540727	3	7.74588e-06	1.24206e-07
2	1	0	0	0	46.6649	0.234805	0.234692	0.000533501	3	7.79985e-06	1.25208e-07
2	1	0	0	0	46.7649	0.239805	0.239703	0.000530518	3	7.85335e-06	1.27167e-07
2	1	0	0	0	46.8649	0.244805	0.244642	0.000527257	3	7.90648e-06	1.28989e-07
2	1	0	0	0	46.9649	0.249806	0.249651	0.000524457	3	7.95924e-06	1.30931e-07
2	1	0	0	0	47.0649	0.254806	0.254704	0.000520393	3	8.01171e-06	1.32546e-07
2	1	0	0	0	47.1649	0.259806	0.25971	0.000518822	3	8.06396e-06	1.34743e-07
2	1	0	0	0	47.2649	0.264806	0.264692	0.000516196	3	8.11599e-06	1.36633e-07
2	1	0	0	0	47.3649	0.269806	0.269731	0.000516542	3	8.16791e-06	1.39327e-07
2	1	0	1	0	47.4651	0.274806	0.274647	0.000514203	3	8.21981e-06	1.41224e-07
2	1	0	1	0	47.5651	0.279806	0.279689	0.000515761	3	8.27161e-06	1.44253e-07
2	1	0	1	0	47.6651	0.284807	0.284693	0.000515115	3	8.32344e-06	1.46649e-07
2	1	0	1	0	47.7651	0.289807	0.289735	0.000518149	3	8.37537e-06	1.50126e-07
2	1	0	1	0	47.8651	0.294807	0.294692	0.00051914	3	8.42746e-06	1.52986e-07
2	1	0	1	0	47.9641	0.299757	0.29959	0.000522163	3	8.47923e-06	1.56435e-07
2	0	0	0	0	48.0545	0.295707	0.295548	0.000382174	3	8.51574e-06	1.12951e-07
2	0	0	0	0	48.1545	0.290707	0.290536	0.000358594	3	8.55234e-06	1.04185e-07
2	0	0	0	0	48.2545	0.285707	0.285568	0.000339673	3	8.58688e-06	9.69997e-08
2	0	0	0	0	48.3545	0.280706	0.280526	0.000326033	3	8.61984e-06	9.14607e-08
2	0	0	0	0	48.4545	0.275706	0.27553	0.000312283	3	8.6515e-06	8.60433e-08
2	0	0	1	0	48.5547	0.270706	0.270538	0.00030358	3	8.68214e-06	8.21298e-08
2	0	0	1	0	48.6547	0.265706	0.265561	0.000294642	3	8.71175e-06	7.82453e-08
2	0	0	1	0	48.7547	0.260706	0.260582	0.0002856	3	8.74054e-06	7.44222e-08
2	0	0	1	0	48.8547	0.255706	0.255509	0.000280523	3	8.76858e-06	7.16763e-08
2	0	0	1	0	48.9547	0.250706	0.250559	0.000270426	3	8.7959e-06	6.77577e-08
2	0	0	1	0	49.0547	0.245705	0.245521	0.000267326	3	8.82259e-06	6.56342e-08
2	0	0	1	0	49.1547	0.240705	0.240513	0.000260354	3	8.8487e-06	6.26186e-08
2	0	0	1	0	49.2547	0.235705	0.235513	0.000255651	3	8.87426e-06	6.02091e-08
2	0	0	1	0	49.3547	0.230705	0.230588	0.000250959	3	8.89932e-06	5.78681e-08
2	0	0	1	0	49.4547	0.225705	0.225536	0.000246412	3	8.92388e-06	5.55747e-08
2	0	0	1	0	49.5547	0.220705	0.220578	0.000240673	3	8.94796e-06	5.30873e-08
2	0	0	1	0	49.6547	0.215705	0.215507	0.000237088	3	8.9716e-06	5.1094e-08
2	0	0	1	0	49.7547	0.210705	0.210569	0.00023344	3	8.99479e-06	4.91551e-08
2	0	0	1	0	49.8547	0.205704	0.205557	0.000228729	3	9.01757e-06	4.70169e-08
2	0	0	1	0	49.9547	0.200704	0.200534	0.00022503	3	9.03989e-06	4.51261e-08
2	0	0	1	0	50.0547	0.195704	0.195531	0.000219298	3	9.06181e-06	4.28795e-08
2	0	0	1	0	50.1547	0.190704	0.190539	0.000216099	3	9.08332e-06	4.11753e-08
2	0	0	1	0	50.2547	0.185704	0.185559	0.000212768	3	9.10442e-06	3.9481e-08
2	0	0	1	0	50.3547	0.180704	0.180584	0.000208627	3	9.12511e-06	3.76748e-08
2	0	0	1	0	50.4547	0.175704	0.175599	0.000202641	3	9.14537e-06	3.55836e-08
2	0	0	1	0	50.5547	0.170704	0.170557	0.000198025	3	9.16522e-06	3.37747e-08
2	0	0	1	0	50.6547	0.165703	0.165532	0.000196277	3	9.18463e-06	3.24902e-08
2	0	0	1	0	50.7547	0.160703	0.160531	0.000190165	3	9.20357e-06	3.05273e-08
2	0	0	1	0	50.8547	0.155703	0.155585	0.000185475	3	9.22206e-06	2.88572e-08
2	0	0	1	0	50.9547	0.150703	0.150538	0.000181999	3	9.24003e-06	2.73978e-08
2	0	0	1	0	51.0547	0.145703	0.145508	0.00017508	3	9.25749e-06	2.54755e-08
2	0	0	1	0	51.1547	0.140703	0.14052	0.000168726	3	9.27439e-06	2.37094e-08
2	0	0	1	0	51.2547	0.135703	0.135514	0.000162371	3	9.29065e-06	2.20035e-08
2	0	0	1	0	51.3547	0.130702	0.130542	0.000154189	3	9.30621e-06	2.01281e-08
2	0	0	1	0	51.4547	0.125702	0.125527	0.000146452	3	9.32096e-06	1.83836e-08
2	0	0	1	0	51.5547	0.120702	0.12051	0.000135816	3	9.33478e-06	1.63673e-08
2	0	0	1	0	51.6547	0.115702	0.115513	0.000123973	3	9.34751e-06	1.43204e-08
2	0	0	1	0	51.7547	0.110702	0.110541	0.000109458	3	9.35891e-06	1.20996e-08
2	0	0	1	0	51.8547	0.105702	0.105543	9.22377e-05	3	9.36873e-06	9.73507e-09
2	0	0	1	0	51.9547	0.100702	0.100539	7.11558e-05	3	9.37665e-06	7.15396e-09
2	0	0	1	0	52.0547	0.0957016	0.095525	4.4273e-05	3	9.3822e-06	4.22918e-09
2	0	0	1	0	52.1547	0.0907014	0.0905541	1.43185e-05	3	9.38486e-06	1.2966e-09
2	0	0	1	0	52.2547	0.0857013	0.0854995	-2.63987e-05	3	9.38391e-06	-2.25708e-09
2	0	0	1	0	52.3547	0.0807011	0.0805412	-7.59373e-05	3	9.3786e-06	-6.11608e-09
2	0	0	1	0	52.4547	0.075701	0.0755459	-0.000134437	3	9.36797e-06	-1.01562e-08
2	0	0	1	0	52.5547	0.0707009	0.0705475	-0.000202462	3	9.35096e-06	-1.42832e-08
2	0	0	1	0	52.6547	0.0657008	0.0655309	-0.000281258	3	9.32654e-06	-1.84311e-08
2	0	0	1	0	52.7547	0.0607006	0.0605441	-0.000370728	3	9.29364e-06	-2.24454e-08
2	0	0	1	0	52.8547	0.0557005	0.0555191	-0.000466076	3	9.25152e-06	-2.58761e-08
2	0	0	1	0	52.9547	0.0507004	0.0505843	-0.000562851	3	9.19968e-06	-2.84714e-08
2	0	0	1	0	53.0547	0.0457002	0.0455402	-0.000658408	3	9.13808e-06	-2.9984e-08
2	0	0	1	0	53.1547	0.0407001	0.0405322	-0.000742595	3	9.06758e-06	-3.0099e-08
2	0	0	1	0	53.2547	0.0357	0.0355199	-0.000810184	3	8.98949e-06	-2.87776e-08
2	0	0	1	0	53.3547	0.0306998	0.0305235	-0.000856048	3	8.90567e-06	-2.61296e-08
2	0	0	1	0	53.4547	0.0256997	0.0255134	-0.00088246	3	8.8183e-06	-2.25145e-08
2	0	0	1	0	53.5547	0.0206996	0.0205107	-0.000884781	3	8.72957e-06	-1.81474e-08
2	0	0	1	0	53.6547	0.0156994	0.0155376	-0.00087069	3	8.64146e-06	-1.35284e-08
2	0	0	1	0	53.7547	0.0106993	0.0105359	-0.000842751	3	8.55549e-06	-8.87917e-09
2	0	0	1	0	53.8547	0.00569916	0.00551625	-0.000806771	3	8.4727e-06	-4.45035e-09
2	0	0	1	0	53.9547	0.000699026	0.000563352	-0.000767693	3	8.39368e-06	-4.32482e-10
2	0	0	1	0	54.0547	-0.00430111	-0.00448178	-0.000727206	3	8.31855e-06	3.25918e-09
2	0	0	1	0	54.1547	-0.00930124	-0.00949829	-0.000688571	3	8.24741e-06	6.54025e-09
2	0	0	1	0	54.2547	-0.0143014	-0.0144766	-0.000653679	3	8.18e-06	9.46308e-09
2	0	0	1	0	54.3547	-0.0193015	-0.0194847	-0.000620772	3	8.11606e-06	1.20955e-08
2	0	0	1	0	54.4547	-0.0243017	-0.0244991	-0.000590937	3	8.05527e-06	1.44774e-08
2	0	0	1	0	54.5547	-0.0293018	-0.0294753	-0.00056341	3	7.99728e-06	1.66067e-08
2	0	0	1	0	54.6547	-0.0343019	-0.0345247	-0.000539698	3	7.94185e-06	1.86329e-08
2	0	0	1	0	54.7547	-0.0393021	-0.0394977	-0.00052073	3	7.88867e-06	2.05676e-08
2	0	0	1	0	54.8547	-0.0443022	-0.0444538	-0.000500061	3	7.83753e-06	2.22296e-08
2	0	0	1	0	54.9547	-0.0493023	-0.0495138	-0.000481308	3	7.7882e-06	2.38313e-08
2	0	0	1	0	55.0547	-0.0543025	-0.0545409	-0.000465829	3	7.74048e-06	2.54067e-08
2	0	0	1	0	55.1547	-0.0593026	-0.0595807	-0.000451955	3	7.69429e-06	2.69278e-08
2	0	0	1	0	55.2547	-0.0643027	-0.0645188	-0.000439986	3	7.64947e-06	2.83874e-08
2	0	0	1	0	55.3547	-0.0693029	-0.0695321	-0.000427881	3	7.60587e-06	2.97515e-08
2	0	0	1	0	55.4547	-0.074303	-0.0744733	-0.000416933	3	7.5634e-06	3.10504e-08
2	0	0	1	0	55.5547	-0.0793031	-0.0795153	-0.000407326	3	7.522e-06	3.23886e-08
2	0	0	1	0	55.6547	-0.0843033	-0.0845615	-0.000399053	3	7.48158e-06	3.37446e-08
2	0	0	1	0	55.7547	-0.0893034	-0.089473	-0.000388549	3	7.44205e-06	3.47646e-08
2	0	0	1	0	55.8547	-0.0943035	-0.0945383	-0.000379257	3	7.40334e-06	3.58544e-08
2	0	0	0	0	55.9549	-0.0993037	-0.0994891	-0.000372877	3	7.36535e-06	3.70972e-08
2	0	0	0	0	56.0549	-0.104304	-0.104517	-0.000365769	3	7.32816e-06	3.82292e-08
2	0	0	0	0	56.1549	-0.109304	-0.109502	-0.000358721	3	7.29165e-06	3.92807e-08
2	0	0	0	0	56.2549	-0.114304	-0.114471	-0.000353375	3	7.25576e-06	4.04511e-08
2	0	0	0	0	56.3549	-0.119304	-0.119464	-0.0003468	3	7.22046e-06	4.14301e-08
2	0	0	0	0	56.4549	-0.124304	-0.124487	-0.000343142	3	7.18573e-06	4.27166e-08
2	0	0	0	0	56.5549	-0.129304	-0.129469	-0.000337341	3	7.15152e-06	4.36753e-08
2	0	0	0	0	56.6549	-0.134305	-0.134506	-0.000332165	3	7.11781e-06	4.46783e-08
2	0	0	0	0	56.7549	-0.139305	-0.1395	-0.00032687	3	7.08455e-06	4.55984e-08
2	0	0	0	0	56.8549	-0.144305	-0.144465	-0.00032336	3	7.05173e-06	4.67142e-08
2	0	0	0	0	56.9549	-0.149305	-0.149511	-0.000319006	3	7.01932e-06	4.76949e-08
2	0	0	0	0	57.0549	-0.154305	-0.154501	-0.000315051	3	6.98729e-06	4.86757e-08
2	0	0	0	0	57.1549	-0.159305	-0.159493	-0.000311663	3	6.95556e-06	4.97081e-08
2	0	0	0	0	57.2549	-0.164305	-0.164512	-0.000310218	3	6.92418e-06	5.10345e-08
2	0	0	0	0	57.3549	-0.169306	-0.169517	-0.000307107	3	6.89309e-06	5.20598e-08
2	0	0	0	0	57.4549	-0.174306	-0.174494	-0.000303461	3	6.86226e-06	5.29522e-08
2	0	0	0	0	57.5549	-0.179306	-0.179524	-0.00030173	3	6.83165e-06	5.41679e-08
2	0	0	0	0	57.6549	-0.184306	-0.184514	-0.000301066	3	6.80123e-06	5.5551e-08
2	0	0	0	0	57.7549	-0.189306	-0.189482	-0.000298199	3	6.77098e-06	5.65034e-08
2	0	0	0	0	57.8549	-0.194306	-0.194512	-0.000297449	3	6.74086e-06	5.78574e-08
2	0	0	0	0	57.9549	-0.199306	-0.199445	-0.000297677	3	6.71083e-06	5.93701e-08
2	1	0	1	1	58.0443	-0.196206	-0.196404	-0.000156232	3	6.69403e-06	3.06846e-08
2	1	0	1	1	58.1443	-0.191206	-0.191376	-0.000136231	3	6.67968e-06	2.60715e-08
2	1	0	1	1	58.2443	-0.186206	-0.186333	-0.000126287	3	6.66685e-06	2.35314e-08
2	1	0	1	1	58.3443	-0.181206	-0.181331	-0.0001151	3	6.65515e-06	2.08712e-08
2	1	0	1	1	58.4443	-0.176206	-0.176361	-0.000106206	3	6.64441e-06	1.87306e-08
2	1	0	1	1	58.5443	-0.171206	-0.17136	-9.80579e-05	3	6.63448e-06	1.68032e-08
2	1	0	1	1	58.6443	-0.166205	-0.166407	-9.33151e-05	3	6.62528e-06	1.55283e-08
2	1	0	1	1	58.7443	-0.161205	-0.161369	-8.5142e-05	3	6.61669e-06	1.37392e-08
2	1	0	1	1	58.8443	-0.156205	-0.156401	-7.96785e-05	3	6.60868e-06	1.24618e-08
2	1	0	1	1	58.9443	-0.151205	-0.15139	-7.60592e-05	3	6.60122e-06	1.15146e-08
2	1	0	1	1	59.0443	-0.146205	-0.146287	-7.06558e-05	3	6.59421e-06	1.0336e-08
2	1	0	1	1	59.1443	-0.141205	-0.141317	-6.7206e-05	3	6.58766e-06	9.49738e-09
2	1	0	1	1	59.2443	-0.136205	-0.136297	-6.23837e-05	3	6.58155e-06	8.50269e-09
2	1	0	1	1	59.3443	-0.131205	-0.131319	-5.89181e-05	3	6.57583e-06	7.73708e-09
2	1	0	1	1	59.4443	-0.126204	-0.126326	-5.40834e-05	3	6.57053e-06	6.83215e-09
2	1	0	1	1	59.5443	-0.121204	-0.121373	-5.05347e-05	3	6.56557e-06	6.13357e-09
2	1	0	1	1	59.6443	-0.116204	-0.116342	-4.63466e-05	3	6.56098e-06	5.39205e-09
2	1	0	1	1	59.7443	-0.111204	-0.111352	-4.29587e-05	3	6.55671e-06	4.78353e-09
2	1	0	1	1	59.8443	-0.106204	-0.106352	-4.28845e-05	3	6.55274e-06	4.56087e-09
2	1	0	1	1	59.9443	-0.101204	-0.101306	-3.86434e-05	3	6.5491e-06	3.91481e-09
2	1	0	0	1	60.0445	-0.0962036	-0.0963458	-3.40242e-05	3	6.54569e-06	3.27809e-09
2	1	0	0	1	60.1445	-0.0912035	-0.0913219	-3.21483e-05	3	6.5426e-06	2.93585e-09
2	1	0	0	1	60.2445	-0.0862033	-0.0863945	-2.94952e-05	3	6.53977e-06	2.54822e-09
2	1	0	0	1	60.3445	-0.0812032	-0.0813991	-2.69004e-05	3	6.5372e-06	2.18967e-09
2	1	0	0	1	60.4445	-0.0762031	-0.076389	-2.36043e-05	3	6.53487e-06	1.80311e-09
2	1	0	0	1	60.5445	-0.0712029	-0.0713672	-2.24155e-05	3	6.53277e-06	1.59973e-09
2	1	0	0	1	60.5628	-0.0702779	-0.0704703	-7.62369e-06	3	6.53242e-06	5.37244e-10