File: AutoAnalysis Examples/EC/C003A-10ppb-A_C01.mpt
EC-Lab ASCII FILE
Nb header lines : 59

Cyclic Voltammetry

Run on channel : 1 (SN 22398)
User :
CE vs. WE compliance from -10 V to 10 V
Electrode connection : standard
Ewe ctrl range : min = -1.00 V, max = 1.00 V
Safety Limits :
	Ewe min = -2.00 V
	Ewe max = 2.00 V
	|I| = 50.000 mA
	for t > 10 ms
Acquisition started on : 11/21/2018 10:06:01
Technique started on : 11/21/2018 10:06:01
Saved on :
	File : C003A-10ppb-A_C01.mpr
	Directory : \\ECCOMPUTER\Users\Lab User\Google Drive\Electrochemical Data\EC-Lab\Data\FREDsense\Tim\2018.11.21 - EC comparison to High Throughput\
	Host : 172.16.1.30
Device : SP-50 (SN 0301030103010301)
Address : USB
EC-Lab for windows v11.02 (software)
Internet server v11.02 (firmware)
Command interpretor v11.02 (firmware)
Electrode material : Au/Pd
Initial state :
Electrolyte : NaCl (0.2M)
Comments : Fe(CN)63-/Fe(CN)64- 5.10-3 M
Reference electrode : SCE Saturated Calomel Electrode (0.241 V)
Electrode surface area : 0.001 cm²
Characteristic mass : 0.001 g
Equivalent Weight : 0.000 g/eq.
Density : 0.000 g/cm3
Cycle Definition : Charge/Discharge alternance
Ei (V)              -0.100
vs.                 Ref
dE/dt               50.000
dE/dt unit          mV/s
E1 (V)              0.300
vs.                 Ref
Step percent        50
N                   10
E range min (V)     -1.000
E range max (V)     1.000
I Range             Auto
I Range min         Unset
I Range max         Unset
I Range init        Unset
Bandwidth           5
E2 (V)              -0.200
vs.                 Ref
nc cycles           2
Reverse Scan        1
Ef (V)              0.000
vs.                 Eoc

mode	ox/red	error	control changes	counter inc.	time/s	control/V	Ewe/V	<I>/mA	cycle number	(Q-Qo)/C	P/W
2	1	0	0	0	0.000000000000000E+000	-0.0984863	-0.0986419	-7.24182e-05	1	0.0000000E+000	7.14347e-09
2	1	0	0	0	0.1112	-0.0929362	-0.0930918	-7.3856e-06	1	3.08889e-10	6.87539e-10
2	1	0	1	0	0.2267	-0.087161	-0.0872551	4.63521e-05	1	4.0357e-09	-4.04446e-09
2	1	0	1	0	0.3267	-0.0821608	-0.0822566	5.06956e-05	1	9.22302e-09	-4.17005e-09
2	1	0	1	0	0.4267	-0.0771607	-0.0772391	5.55179e-05	1	1.48876e-08	-4.28815e-09
2	1	0	1	0	0.5267	-0.0721605	-0.072266	5.83371e-05	1	2.09189e-08	-4.21579e-09
2	1	0	1	0	0.6267	-0.0671603	-0.0672802	6.09354e-05	1	2.72371e-08	-4.09975e-09
2	1	0	1	0	0.7267	-0.0621602	-0.0622627	6.3237e-05	1	3.3828e-08	-3.93731e-09
2	1	0	1	0	0.8267	-0.05716	-0.0572409	6.57965e-05	1	4.06547e-08	-3.76625e-09
2	1	0	1	0	0.9267	-0.0521598	-0.0522858	7.26272e-05	1	4.77265e-08	-3.79737e-09
2	1	0	1	0	1.0267	-0.0471597	-0.0472301	7.17917e-05	1	5.50376e-08	-3.39073e-09
2	1	0	1	0	1.1267	-0.0421595	-0.0422178	7.3839e-05	1	6.25819e-08	-3.11732e-09
2	1	0	1	0	1.2267	-0.0371594	-0.0372278	7.50489e-05	1	7.04001e-08	-2.79391e-09
2	1	0	1	0	1.3267	-0.0321592	-0.0322548	7.91947e-05	1	7.84862e-08	-2.55441e-09
2	1	0	1	0	1.4267	-0.027159	-0.0273135	8.37325e-05	1	8.68994e-08	-2.28703e-09
2	1	0	1	0	1.5267	-0.0221589	-0.0222334	8.74208e-05	1	9.56979e-08	-1.94366e-09
2	1	0	1	0	1.6267	-0.0171587	-0.0172572	9.27818e-05	1	1.04945e-07	-1.60115e-09
2	1	0	1	0	1.7267	-0.0121585	-0.0121866	9.89182e-05	1	1.14735e-07	-1.20548e-09
2	1	0	1	0	1.8267	-0.00715838	-0.0072369	0.000106399	1	1.25221e-07	-7.69998e-10
2	1	0	1	0	1.9267	-0.00215822	-0.00224053	0.000115127	1	1.36589e-07	-2.57945e-10
2	1	0	1	0	2.0267	0.00284194	0.00274417	0.00012948	1	1.49171e-07	3.55317e-10
2	1	0	1	0	2.1267	0.0078421	0.00775538	0.000147847	1	1.63202e-07	1.14661e-09
2	1	0	1	0	2.2267	0.0128423	0.0127793	0.000167981	1	1.79196e-07	2.14668e-09
2	1	0	1	0	2.3267	0.0178424	0.0177746	0.000197483	1	1.9775e-07	3.51019e-09
2	1	0	1	0	2.4267	0.0228426	0.022771	0.000234712	1	2.19562e-07	5.34462e-09
2	1	0	1	0	2.5267	0.0278427	0.0277493	0.000281443	1	2.45549e-07	7.80987e-09
2	1	0	1	0	2.6267	0.0328429	0.0327584	0.000338507	1	2.76675e-07	1.10889e-08
2	1	0	1	0	2.7267	0.0378431	0.0377611	0.000405383	1	3.14014e-07	1.53077e-08
2	1	0	1	0	2.8267	0.0428432	0.0427533	0.000481931	1	3.58572e-07	2.06041e-08
2	1	0	1	0	2.9267	0.0478434	0.0476945	0.000564989	1	4.1119e-07	2.69469e-08
2	1	0	1	0	3.0267	0.0528435	0.0528064	0.000654588	1	4.72479e-07	3.45664e-08
2	1	0	1	0	3.1267	0.0578437	0.0577349	0.000736257	1	5.42333e-07	4.25077e-08
2	1	0	1	0	3.2267	0.0628439	0.0627928	0.00081304	1	6.20228e-07	5.10531e-08
2	1	0	1	0	3.3267	0.067844	0.0677892	0.000876502	1	7.05139e-07	5.94173e-08
2	1	0	1	0	3.4267	0.0728442	0.0728057	0.000922011	1	7.95498e-07	6.71276e-08
2	1	0	1	0	3.5267	0.0778443	0.0777639	0.000951653	1	8.89619e-07	7.40042e-08
2	1	0	1	0	3.6267	0.0828445	0.0827359	0.000962981	1	9.85721e-07	7.9673e-08
2	1	0	1	0	3.7267	0.0878447	0.0877227	0.000959768	1	1.08226e-06	8.41934e-08
2	1	0	1	0	3.8267	0.0928448	0.0927869	0.000947553	1	1.17798e-06	8.79205e-08
2	1	0	1	0	3.9267	0.097845	0.0977663	0.000926323	1	1.27198e-06	9.05631e-08
2	1	0	1	0	4.0267	0.102845	0.102732	0.000902123	1	1.36366e-06	9.26768e-08
2	1	0	1	0	4.1267	0.107845	0.107705	0.000874474	1	1.45274e-06	9.41852e-08
2	1	0	1	0	4.2267	0.112845	0.112713	0.000848084	1	1.53912e-06	9.55901e-08
2	1	0	1	0	4.3267	0.117846	0.117724	0.000821263	1	1.62287e-06	9.66825e-08
2	1	0	1	0	4.4267	0.122846	0.122771	0.000796834	1	1.70408e-06	9.78284e-08
2	1	0	1	0	4.5267	0.127846	0.127726	0.000776018	1	1.78295e-06	9.91181e-08
2	1	0	1	0	4.6267	0.132846	0.132754	0.000755062	1	1.85965e-06	1.00237e-07
2	1	0	1	0	4.7267	0.137846	0.137701	0.000735801	1	1.93439e-06	1.01321e-07
2	1	0	1	0	4.8267	0.142846	0.142748	0.000718778	1	2.0074e-06	1.02604e-07
2	1	0	1	0	4.9267	0.147847	0.147747	0.000705075	1	2.07879e-06	1.04173e-07
2	1	0	1	0	5.0267	0.152847	0.152738	0.000695169	1	2.14878e-06	1.06179e-07
2	1	0	1	0	5.1267	0.157847	0.157769	0.000677796	1	2.21752e-06	1.06935e-07
2	1	0	1	0	5.2267	0.162847	0.162719	0.000667108	1	2.28508e-06	1.08551e-07
2	1	0	1	0	5.3267	0.167847	0.167725	0.000657626	1	2.35167e-06	1.103e-07
2	1	0	1	0	5.4267	0.172847	0.17274	0.00065005	1	2.41732e-06	1.1229e-07
2	1	0	1	0	5.5267	0.177848	0.177726	0.000641036	1	2.48215e-06	1.13929e-07
2	1	0	1	0	5.6267	0.182848	0.18271	0.000635131	1	2.54628e-06	1.16045e-07
2	1	0	1	0	5.7267	0.187848	0.187696	0.000629522	1	2.60977e-06	1.18159e-07
2	1	0	1	0	5.8267	0.192848	0.192765	0.000625373	1	2.67269e-06	1.2055e-07
2	1	0	1	0	5.9267	0.197848	0.197793	0.000618292	1	2.73512e-06	1.22294e-07
2	1	0	1	0	6.0267	0.202848	0.202665	0.000614526	1	2.79713e-06	1.24543e-07
2	1	0	1	0	6.1267	0.207849	0.207721	0.000613037	1	2.85879e-06	1.27341e-07
2	1	0	0	0	6.2269	0.212849	0.212709	0.000610055	1	2.92023e-06	1.29764e-07
2	1	0	0	0	6.3269	0.217849	0.217787	0.000605805	1	2.9813e-06	1.31937e-07
2	1	0	0	0	6.4269	0.222849	0.222718	0.000603452	1	3.04215e-06	1.344e-07
2	1	0	0	0	6.5269	0.227849	0.227735	0.000604016	1	3.10282e-06	1.37556e-07
2	1	0	0	0	6.6269	0.232849	0.232731	0.000602675	1	3.16339e-06	1.40261e-07
2	1	0	0	0	6.7269	0.237849	0.237772	0.000600799	1	3.22384e-06	1.42853e-07
2	1	0	0	0	6.8269	0.24285	0.242719	0.000600253	1	3.28424e-06	1.45693e-07
2	1	0	0	0	6.9269	0.24785	0.247763	0.000601852	1	3.34462e-06	1.49117e-07
2	1	0	0	0	7.0269	0.25285	0.252751	0.000601412	1	3.405e-06	1.52008e-07
2	1	0	0	0	7.1269	0.25785	0.257713	0.000602585	1	3.46548e-06	1.55294e-07
2	1	0	0	0	7.2269	0.26285	0.262707	0.000602636	1	3.52597e-06	1.58317e-07
2	1	0	0	0	7.3269	0.26785	0.267719	0.000606748	1	3.58668e-06	1.62438e-07
2	1	0	0	0	7.4269	0.272851	0.27279	0.000610018	1	3.64757e-06	1.66407e-07
2	1	0	0	0	7.5269	0.277851	0.277743	0.000610523	1	3.70874e-06	1.69568e-07
2	1	0	0	0	7.6269	0.282851	0.282725	0.000615891	1	3.77036e-06	1.74128e-07
2	1	0	0	0	7.7269	0.287851	0.287726	0.000614206	1	3.83215e-06	1.76723e-07
2	1	0	0	0	7.8269	0.292851	0.292683	0.000616518	1	3.89392e-06	1.80444e-07
2	1	0	0	0	7.9269	0.297851	0.297703	0.000617942	1	3.95586e-06	1.83963e-07
2	0	0	1	0	8.0053	0.298251	0.298131	0.000485068	1	4.00027e-06	1.44614e-07
2	0	0	1	0	8.1053	0.293251	0.293128	0.000432106	1	4.04571e-06	1.26663e-07
2	0	0	1	0	8.2053	0.288251	0.288072	0.00040034	1	4.08699e-06	1.15327e-07
2	0	0	1	0	8.3053	0.283251	0.283108	0.000372174	1	4.12532e-06	1.05365e-07
2	0	0	1	0	8.4053	0.278251	0.278068	0.000352806	1	4.16133e-06	9.8104e-08
2	0	0	1	0	8.5053	0.273251	0.273086	0.000336124	1	4.1955e-06	9.17909e-08
2	0	0	1	0	8.6053	0.26825	0.268131	0.000321565	1	4.22806e-06	8.62218e-08
2	0	0	1	0	8.7053	0.26325	0.263097	0.000307109	1	4.25926e-06	8.07995e-08
2	0	0	1	0	8.8053	0.25825	0.258111	0.000297784	1	4.28929e-06	7.68615e-08
2	0	0	1	0	8.9053	0.25325	0.253101	0.000287469	1	4.31826e-06	7.27586e-08
2	0	0	1	0	9.0053	0.24825	0.248099	0.000278467	1	4.34633e-06	6.90875e-08
2	0	0	1	0	9.1053	0.24325	0.243133	0.000269623	1	4.37355e-06	6.55541e-08
2	0	0	1	0	9.2053	0.238249	0.238067	0.000262501	1	4.40001e-06	6.24928e-08
2	0	0	1	0	9.3053	0.233249	0.233072	0.000257385	1	4.42577e-06	5.99893e-08
2	0	0	1	0	9.4053	0.228249	0.228099	0.000249187	1	4.45087e-06	5.68394e-08
2	0	0	1	0	9.5053	0.223249	0.223081	0.000244732	1	4.4754e-06	5.45953e-08
2	0	0	1	0	9.6053	0.218249	0.218122	0.000237875	1	4.49936e-06	5.18859e-08
2	0	0	1	0	9.7053	0.213249	0.213113	0.000234056	1	4.52275e-06	4.98805e-08
2	0	0	0	0	9.8055	0.208249	0.208066	0.000229476	1	4.54569e-06	4.77461e-08
2	0	0	0	0	9.9055	0.203248	0.203119	0.000223757	1	4.56808e-06	4.54493e-08
2	0	0	0	0	10.0055	0.198248	0.198089	0.000218879	1	4.58998e-06	4.33576e-08
2	0	0	0	0	10.1055	0.193248	0.193112	0.000214983	1	4.6114e-06	4.15157e-08
2	0	0	0	0	10.2055	0.188248	0.188125	0.000210279	1	4.63244e-06	3.95587e-08
2	0	0	0	0	10.3055	0.183248	0.183098	0.00020484	1	4.65301e-06	3.75058e-08
2	0	0	0	0	10.4055	0.178248	0.178146	0.00020044	1	4.67314e-06	3.57076e-08
2	0	0	0	0	10.5055	0.173247	0.173094	0.000196602	1	4.69283e-06	3.40307e-08
2	0	0	0	0	10.6055	0.168247	0.168079	0.000193733	1	4.71209e-06	3.25625e-08
2	0	0	0	0	10.7055	0.163247	0.163153	0.000188503	1	4.7309e-06	3.07547e-08
2	0	0	0	0	10.8055	0.158247	0.158109	0.000184196	1	4.74927e-06	2.9123e-08
2	0	0	0	0	10.9055	0.153247	0.153149	0.000179752	1	4.76717e-06	2.75289e-08
2	0	0	0	0	11.0055	0.148247	0.148129	0.000173997	1	4.78457e-06	2.57739e-08
2	0	0	0	0	11.1055	0.143246	0.143038	0.000169738	1	4.80149e-06	2.4279e-08
2	0	0	0	0	11.2055	0.138246	0.138047	0.000162406	1	4.81784e-06	2.24196e-08
2	0	0	0	0	11.3055	0.133246	0.133068	0.00015692	1	4.83359e-06	2.0881e-08
2	0	0	0	0	11.4055	0.128246	0.128123	0.000149414	1	4.84866e-06	1.91434e-08
2	0	0	0	0	11.5055	0.123246	0.123106	0.000140693	1	4.86296e-06	1.73203e-08
2	0	0	0	0	11.6055	0.118246	0.118113	0.00013145	1	4.87638e-06	1.5526e-08
2	0	0	0	0	11.7055	0.113245	0.113123	0.00012148	1	4.88876e-06	1.37423e-08
2	0	0	0	0	11.8055	0.108245	0.108126	0.000106413	1	4.8999e-06	1.1506e-08
2	0	0	0	0	11.9055	0.103245	0.103121	9.04466e-05	1	4.90954e-06	9.32694e-09
2	0	0	0	0	12.0055	0.098245	0.0980971	7.11364e-05	1	4.91734e-06	6.97827e-09
2	0	0	0	0	12.1055	0.0932448	0.0931071	4.4976e-05	1	4.92288e-06	4.18759e-09
2	0	0	0	0	12.2055	0.0882447	0.0880926	1.63269e-05	1	4.92564e-06	1.43828e-09
2	0	0	0	0	12.3055	0.0832445	0.0831472	-2.47736e-05	1	4.92495e-06	-2.05986e-09
2	0	0	0	0	12.4055	0.0782444	0.0781487	-7.00835e-05	1	4.92004e-06	-5.47693e-09
2	0	0	0	0	12.5055	0.0732442	0.073129	-0.000126439	1	4.90999e-06	-9.24633e-09
2	0	0	0	0	12.6055	0.068244	0.068157	-0.000191903	1	4.89386e-06	-1.30795e-08
2	0	0	0	0	12.7055	0.0632439	0.0630992	-0.000269773	1	4.87069e-06	-1.70224e-08
2	0	0	0	0	12.8055	0.0582437	0.0580943	-0.00035022	1	4.8396e-06	-2.03458e-08
2	0	0	0	0	12.9055	0.0532436	0.0531255	-0.000435745	1	4.80004e-06	-2.31492e-08
2	0	0	0	0	13.0055	0.0482434	0.0480571	-0.000521822	1	4.75176e-06	-2.50772e-08
2	0	0	0	0	13.1055	0.0432432	0.0431052	-0.000599879	1	4.69528e-06	-2.58579e-08
2	0	0	0	0	13.2055	0.0382431	0.0381216	-0.000664822	1	4.63161e-06	-2.53441e-08
2	0	0	0	0	13.3055	0.0332429	0.033122	-0.000712228	1	4.56228e-06	-2.35905e-08
2	0	0	0	0	13.4055	0.0282428	0.0281426	-0.000738624	1	4.4892e-06	-2.07868e-08
2	0	0	0	0	13.5055	0.0232426	0.0230869	-0.000747473	1	4.41439e-06	-1.72568e-08
2	0	0	0	0	13.6055	0.0182424	0.0181414	-0.000738786	1	4.33967e-06	-1.34026e-08
2	0	0	0	0	13.7055	0.0132423	0.013109	-0.000717072	1	4.26653e-06	-9.4001e-09
2	0	0	0	0	13.8055	0.00824212	0.00813703	-0.000686455	1	4.19597e-06	-5.5857e-09
2	0	0	0	0	13.9055	0.00324196	0.00312476	-0.00065387	1	4.1286e-06	-2.04319e-09
2	0	0	0	0	14.0055	-0.0017582	-0.00194158	-0.000619901	1	4.0646e-06	1.20359e-09
2	0	0	0	0	14.1055	-0.00675837	-0.0068807	-0.00058385	1	4.00404e-06	4.0173e-09
2	0	0	0	0	14.2055	-0.0117585	-0.0119152	-0.000553702	1	3.94695e-06	6.59748e-09
2	0	0	0	0	14.3055	-0.0167587	-0.0168872	-0.000522919	1	3.89283e-06	8.83064e-09
2	0	0	0	0	14.4055	-0.0217589	-0.0218677	-0.00049921	1	3.84149e-06	1.09166e-08
2	0	0	0	0	14.5055	-0.026759	-0.0268948	-0.000474062	1	3.79264e-06	1.27498e-08
2	0	0	0	0	14.6055	-0.0317592	-0.0319081	-0.000453353	1	3.74603e-06	1.44656e-08
2	0	0	0	0	14.7055	-0.0367593	-0.0368727	-0.000434827	1	3.70142e-06	1.60332e-08
2	0	0	0	0	14.8055	-0.0417595	-0.0419115	-0.000418463	1	3.65857e-06	1.75384e-08
2	0	0	0	0	14.9055	-0.0467597	-0.0468845	-0.000401961	1	3.61732e-06	1.88457e-08
2	0	0	0	0	15.0055	-0.0517598	-0.0518724	-0.00038812	1	3.5775e-06	2.01327e-08
2	0	0	0	0	15.1055	-0.05676	-0.0568985	-0.000377539	1	3.53891e-06	2.14814e-08
2	0	0	0	0	15.2055	-0.0617602	-0.0618736	-0.000365792	1	3.50152e-06	2.26329e-08
2	0	0	0	0	15.3055	-0.0667603	-0.0669505	-0.000356907	1	3.46516e-06	2.38951e-08
2	0	0	0	0	15.4055	-0.0717605	-0.0718812	-0.00034733	1	3.42978e-06	2.49665e-08
2	0	0	0	0	15.5055	-0.0767606	-0.0768871	-0.000337473	1	3.39527e-06	2.59474e-08
2	0	0	0	0	15.6055	-0.0817608	-0.0818814	-0.000331881	1	3.36154e-06	2.71749e-08
2	0	0	0	0	15.7055	-0.086761	-0.0869212	-0.000322848	1	3.32857e-06	2.80623e-08
2	0	0	0	0	15.8055	-0.0917611	-0.0918783	-0.000316552	1	3.29627e-06	2.90843e-08
2	0	0	0	0	15.9055	-0.0967613	-0.0969372	-0.000311866	1	3.2646e-06	3.02314e-08
2	0	0	1	0	16.0057	-0.101761	-0.101894	-0.000307044	1	3.23347e-06	3.1286e-08
2	0	0	1	0	16.1057	-0.106762	-0.10686	-0.000300225	1	3.20293e-06	3.20821e-08
2	0	0	1	0	16.2057	-0.111762	-0.111906	-0.000295707	1	3.17288e-06	3.30914e-08
2	0	0	1	0	16.3057	-0.116762	-0.116894	-0.000290705	1	3.1433e-06	3.39816e-08
2	0	0	1	0	16.4057	-0.121762	-0.121892	-0.000287622	1	3.11415e-06	3.50587e-08
2	0	0	1	0	16.5057	-0.126762	-0.126901	-0.000283151	1	3.08542e-06	3.59321e-08
2	0	0	1	0	16.6057	-0.131762	-0.131905	-0.000279898	1	3.05704e-06	3.692e-08
2	0	0	1	0	16.7057	-0.136763	-0.136877	-0.000275641	1	3.02903e-06	3.7729e-08
2	0	0	1	0	16.8057	-0.141763	-0.141877	-0.000273719	1	3.00134e-06	3.88344e-08
2	0	0	1	0	16.9057	-0.146763	-0.146909	-0.000270108	1	2.97394e-06	3.96815e-08
2	0	0	1	0	17.0057	-0.151763	-0.151874	-0.00026574	1	2.94682e-06	4.0359e-08
2	0	0	1	0	17.1057	-0.156763	-0.156899	-0.000265194	1	2.91991e-06	4.16087e-08
2	0	0	1	0	17.2057	-0.161763	-0.161894	-0.000262704	1	2.89325e-06	4.25302e-08
2	0	0	1	0	17.3057	-0.166764	-0.16688	-0.000260632	1	2.86678e-06	4.34942e-08
2	0	0	1	0	17.4057	-0.171764	-0.171923	-0.000259524	1	2.84048e-06	4.46182e-08
2	0	0	1	0	17.5057	-0.176764	-0.176878	-0.000257821	1	2.81433e-06	4.56029e-08
2	0	0	1	0	17.6057	-0.181764	-0.181933	-0.000259146	1	2.78828e-06	4.71472e-08
2	0	0	1	0	17.7057	-0.186764	-0.186891	-0.000255977	1	2.76233e-06	4.78398e-08
2	0	0	1	0	17.8057	-0.191764	-0.191883	-0.000254845	1	2.73645e-06	4.89004e-08
2	0	0	1	0	17.9057	-0.196765	-0.196901	-0.000255502	1	2.7106e-06	5.03085e-08
2	1	0	1	1	17.9961	-0.198715	-0.198807	-0.000137678	1	2.69021e-06	2.73713e-08
2	1	0	1	1	18.0961	-0.193714	-0.193793	-0.000107337	1	2.67856e-06	2.08012e-08
2	1	0	1	1	18.1961	-0.188714	-0.188789	-9.15452e-05	1	2.66892e-06	1.72827e-08
2	1	0	1	1	18.2961	-0.183714	-0.183779	-8.07013e-05	1	2.66062e-06	1.48312e-08
2	1	0	1	1	18.3961	-0.178714	-0.178782	-7.25387e-05	1	2.65335e-06	1.29686e-08
2	1	0	1	1	18.4961	-0.173714	-0.173745	-6.35672e-05	1	2.64692e-06	1.10445e-08
2	1	0	1	1	18.5961	-0.168714	-0.168808	-5.61819e-05	1	2.64123e-06	9.48398e-09
2	1	0	1	1	18.6961	-0.163713	-0.163828	-5.01285e-05	1	2.63622e-06	8.21244e-09
2	1	0	1	1	18.7961	-0.158713	-0.158849	-4.52656e-05	1	2.63176e-06	7.19037e-09
2	1	0	1	1	18.8961	-0.153713	-0.153802	-3.98869e-05	1	2.62785e-06	6.1347e-09
2	1	0	1	1	18.9961	-0.148713	-0.148788	-3.5584e-05	1	2.6244e-06	5.29447e-09
2	1	0	1	1	19.0961	-0.143713	-0.143798	-3.13411e-05	1	2.62138e-06	4.50678e-09
2	1	0	1	1	19.1961	-0.138713	-0.138799	-2.92073e-05	1	2.61879e-06	4.05395e-09
2	1	0	1	1	19.2961	-0.133712	-0.133715	-2.22018e-05	1	2.61656e-06	2.96871e-09
2	1	0	1	1	19.3961	-0.128712	-0.128767	-1.92307e-05	1	2.61469e-06	2.47629e-09
2	1	0	1	1	19.4961	-0.123712	-0.123837	-1.6302e-05	1	2.61316e-06	2.01879e-09
2	1	0	1	1	19.5961	-0.118712	-0.118766	-1.39368e-05	1	2.61194e-06	1.65522e-09
2	1	0	1	1	19.6961	-0.113712	-0.113808	-9.24171e-06	1	2.61103e-06	1.05178e-09
2	1	0	1	1	19.7961	-0.108712	-0.108812	-6.8924e-06	1	2.6104e-06	7.49974e-10
2	1	0	1	1	19.8961	-0.103712	-0.103832	-5.90852e-06	1	2.61005e-06	6.13495e-10
2	1	0	1	1	19.9961	-0.0987113	-0.0987914	-3.93545e-06	2	2.60994e-06	3.88789e-10
2	1	0	0	1	20.0963	-0.0937112	-0.0938767	-1.28233e-06	2	2.61007e-06	1.20381e-10
2	1	0	0	1	20.1963	-0.088711	-0.0887955	2.6373e-06	2	2.61046e-06	-2.34181e-10
2	1	0	0	1	20.2963	-0.0837109	-0.0837737	2.94289e-06	2	2.61107e-06	-2.46537e-10
2	1	0	0	1	20.3963	-0.0787107	-0.0788441	6.27961e-06	2	2.61191e-06	-4.9511e-10
2	1	0	0	1	20.4963	-0.0737106	-0.0738233	8.66248e-06	2	2.61296e-06	-6.39493e-10
2	1	0	0	1	20.5963	-0.0687104	-0.0688058	9.88836e-06	2	2.61422e-06	-6.80376e-10
2	1	0	0	1	20.6963	-0.0637102	-0.063803	1.10242e-05	2	2.61568e-06	-7.03374e-10
2	1	0	0	1	20.7963	-0.0587101	-0.0588427	1.39687e-05	2	2.61734e-06	-8.21958e-10
2	1	0	0	1	20.8963	-0.0537099	-0.0538251	1.68268e-05	2	2.61921e-06	-9.05703e-10
2	1	0	0	1	20.9963	-0.0487097	-0.0488267	1.69186e-05	2	2.62132e-06	-8.26079e-10
2	1	0	0	1	21.0963	-0.0437096	-0.0437995	1.91708e-05	2	2.62363e-06	-8.39671e-10
2	1	0	0	1	21.1963	-0.0387094	-0.0387661	2.23026e-05	2	2.62618e-06	-8.64584e-10
2	1	0	0	1	21.2963	-0.0337092	-0.0338619	2.66938e-05	2	2.62898e-06	-9.03906e-10
2	1	0	0	1	21.3963	-0.0287091	-0.0288242	2.96649e-05	2	2.63208e-06	-8.55068e-10
2	1	0	0	1	21.4963	-0.0237089	-0.0238014	3.21926e-05	2	2.63555e-06	-7.66228e-10
2	1	0	0	1	21.5963	-0.0187088	-0.018823	3.83415e-05	2	2.63942e-06	-7.21701e-10
2	1	0	0	1	21.6963	-0.0137086	-0.0137662	4.38685e-05	2	2.6438e-06	-6.03903e-10
2	1	0	0	1	21.7963	-0.00870843	-0.00882815	4.97541e-05	2	2.64884e-06	-4.39237e-10
2	1	0	0	1	21.8963	-0.00370827	-0.00384344	5.92326e-05	2	2.65469e-06	-2.27657e-10
2	1	0	0	1	21.9963	0.00129189	0.00122077	7.19736e-05	2	2.66169e-06	8.78636e-11
2	1	0	0	1	22.0963	0.00629205	0.00617474	8.80991e-05	2	2.66999e-06	5.43988e-10
2	1	0	0	1	22.1963	0.0112922	0.0111976	0.000106397	2	2.68008e-06	1.19139e-09
2	1	0	0	1	22.2963	0.0162924	0.0162608	0.000133935	2	2.69249e-06	2.17789e-09
2	1	0	0	1	22.3963	0.0212925	0.0212306	0.000165427	2	2.70783e-06	3.51211e-09
2	1	0	0	1	22.4963	0.0262927	0.0262153	0.00020915	2	2.7269e-06	5.48294e-09
2	1	0	0	1	22.5963	0.0312929	0.0312318	0.000259911	2	2.75056e-06	8.1175e-09
2	1	0	0	1	22.6963	0.036293	0.0362229	0.000319433	2	2.77976e-06	1.15708e-08
2	1	0	0	1	22.7963	0.0412932	0.0411864	0.000387879	2	2.81551e-06	1.59754e-08
2	1	0	0	1	22.8963	0.0462933	0.0462125	0.000467088	2	2.85861e-06	2.15853e-08
2	1	0	0	1	22.9963	0.0512935	0.0512014	0.000550006	2	2.90975e-06	2.81611e-08
2	1	0	0	1	23.0963	0.0562937	0.0562306	0.000631416	2	2.9692e-06	3.55049e-08
2	1	0	0	1	23.1963	0.0612938	0.0611846	0.000709443	2	3.03671e-06	4.3407e-08
2	1	0	0	1	23.2963	0.066294	0.0662287	0.000779044	2	3.11167e-06	5.15951e-08
2	1	0	0	1	23.3963	0.0712941	0.0712059	0.00083509	2	3.19289e-06	5.94634e-08
2	1	0	0	1	23.4963	0.0762943	0.0762097	0.000875876	2	3.27895e-06	6.67503e-08
2	1	0	0	1	23.5963	0.0812945	0.0812167	0.000899154	2	3.36818e-06	7.30263e-08
2	1	0	0	1	23.6963	0.0862946	0.0861791	0.000907051	2	3.45895e-06	7.81689e-08
2	1	0	0	1	23.7963	0.0912948	0.0911628	0.000901874	2	3.54986e-06	8.22174e-08
2	1	0	0	1	23.8963	0.0962949	0.096245	0.000885236	2	3.6397e-06	8.51996e-08
2	1	0	0	1	23.9963	0.101295	0.101171	0.000864736	2	3.72767e-06	8.74865e-08
2	1	0	0	1	24.0963	0.106295	0.106171	0.000839579	2	3.81321e-06	8.91389e-08
2	1	0	0	1	24.1963	0.111295	0.111242	0.000809672	2	3.89606e-06	9.00691e-08
2	1	0	0	1	24.2963	0.116296	0.116184	0.000783063	2	3.97612e-06	9.09792e-08
2	1	0	0	1	24.3963	0.121296	0.121191	0.000756438	2	4.05339e-06	9.16733e-08
2	1	0	0	1	24.4963	0.126296	0.126155	0.000731035	2	4.12802e-06	9.2224e-08
2	1	0	0	1	24.5963	0.131296	0.13111	0.00070573	2	4.20018e-06	9.25285e-08
2	1	0	0	1	24.6963	0.136296	0.136202	0.00068409	2	4.27005e-06	9.31745e-08
2	1	0	0	1	24.7963	0.141296	0.141196	0.000664645	2	4.33781e-06	9.38455e-08
2	1	0	0	1	24.8963	0.146297	0.146187	0.000647087	2	4.40363e-06	9.45961e-08
2	1	0	0	1	24.9963	0.151297	0.151197	0.000630496	2	4.46772e-06	9.53288e-08
2	1	0	0	1	25.0963	0.156297	0.156166	0.00061424	2	4.53024e-06	9.59236e-08
2	1	0	0	1	25.1963	0.161297	0.161179	0.000599757	2	4.5913e-06	9.6668e-08
2	1	0	0	1	25.2963	0.166297	0.166214	0.000588494	2	4.65103e-06	9.78161e-08
2	1	0	0	1	25.3963	0.171297	0.171194	0.000576776	2	4.70958e-06	9.87404e-08
2	1	0	0	1	25.4963	0.176297	0.176196	0.000566278	2	4.76704e-06	9.97762e-08
2	1	0	0	1	25.5963	0.181298	0.181211	0.00055606	2	4.82352e-06	1.00764e-07
2	1	0	0	1	25.6963	0.186298	0.18623	0.000548604	2	4.87908e-06	1.02167e-07
2	1	0	0	1	25.7963	0.191298	0.191194	0.000539696	2	4.93382e-06	1.03187e-07
2	1	0	0	1	25.8963	0.196298	0.196185	0.000531964	2	4.98784e-06	1.04363e-07
2	1	0	0	1	25.9963	0.201298	0.201189	0.000526835	2	5.04117e-06	1.05993e-07
2	1	0	0	1	26.0963	0.206298	0.206231	0.00052144	2	5.09393e-06	1.07537e-07
2	1	0	1	1	26.1965	0.211299	0.211164	0.000515878	2	5.14621e-06	1.08935e-07
2	1	0	1	1	26.2965	0.216299	0.216208	0.000510382	2	5.19792e-06	1.10349e-07
2	1	0	1	1	26.3965	0.221299	0.221201	0.000506182	2	5.2492e-06	1.11968e-07
2	1	0	1	1	26.4965	0.226299	0.226201	0.000503882	2	5.3001e-06	1.13979e-07
2	1	0	1	1	26.5965	0.231299	0.231157	0.000501086	2	5.35067e-06	1.1583e-07
2	1	0	1	1	26.6965	0.236299	0.236199	0.000497036	2	5.40095e-06	1.174e-07
2	1	0	1	1	26.7965	0.2413	0.24116	0.000496078	2	5.451e-06	1.19634e-07
2	1	0	1	1	26.8965	0.2463	0.246186	0.000493994	2	5.50088e-06	1.21614e-07
2	1	0	1	1	26.9965	0.2513	0.2512	0.000492464	2	5.55063e-06	1.23707e-07
2	1	0	1	1	27.0965	0.2563	0.256218	0.000492823	2	5.60031e-06	1.2627e-07
2	1	0	1	1	27.1965	0.2613	0.261203	0.000492653	2	5.64995e-06	1.28682e-07
2	1	0	1	1	27.2965	0.2663	0.266222	0.000492754	2	5.69962e-06	1.31182e-07
2	1	0	1	1	27.3965	0.271301	0.271198	0.000494068	2	5.74937e-06	1.3399e-07
2	1	0	1	1	27.4965	0.276301	0.276204	0.000494858	2	5.79926e-06	1.36682e-07
2	1	0	1	1	27.5965	0.281301	0.281236	0.000497682	2	5.84932e-06	1.39966e-07
2	1	0	1	1	27.6965	0.286301	0.286182	0.000500968	2	5.89963e-06	1.43368e-07
2	1	0	1	1	27.7965	0.291301	0.291183	0.000504409	2	5.95024e-06	1.46875e-07
2	1	0	1	1	27.8965	0.296301	0.29618	0.000507399	2	6.00121e-06	1.50282e-07
2	0	0	1	1	27.9759	0.299751	0.299552	0.000412123	2	6.04141e-06	1.23453e-07
2	0	0	1	1	28.0759	0.294751	0.294636	0.000359691	2	6.0792e-06	1.05978e-07
2	0	0	1	1	28.1759	0.289751	0.289615	0.000334868	2	6.11351e-06	9.69828e-08
2	0	0	1	1	28.2759	0.284751	0.284591	0.000314364	2	6.14558e-06	8.94651e-08
2	0	0	1	1	28.3759	0.279751	0.279634	0.000297703	2	6.17593e-06	8.32479e-08
2	0	0	1	1	28.4759	0.274751	0.274576	0.000284508	2	6.20486e-06	7.81191e-08
2	0	0	1	1	28.5759	0.26975	0.269549	0.000274071	2	6.23261e-06	7.38754e-08
2	0	0	1	1	28.6759	0.26475	0.264651	0.000265908	2	6.25931e-06	7.03728e-08
2	0	0	1	1	28.7759	0.25975	0.25959	0.0002559	2	6.28513e-06	6.6429e-08
2	0	0	1	1	28.8759	0.25475	0.254613	0.000248043	2	6.31013e-06	6.31548e-08
2	0	0	1	1	28.9759	0.24975	0.24961	0.000242883	2	6.33442e-06	6.0626e-08
2	0	0	1	1	29.0759	0.24475	0.244613	0.000235037	2	6.35805e-06	5.74929e-08
2	0	0	1	1	29.1759	0.23975	0.239605	0.00022895	2	6.38108e-06	5.48574e-08
2	0	0	1	1	29.2759	0.234749	0.234612	0.000223596	2	6.40356e-06	5.24584e-08
2	0	0	1	1	29.3759	0.229749	0.229617	0.000219183	2	6.42551e-06	5.03282e-08
2	0	0	1	1	29.4759	0.224749	0.224543	0.000214794	2	6.44698e-06	4.82305e-08
2	0	0	1	1	29.5759	0.219749	0.21962	0.00021029	2	6.46797e-06	4.61838e-08
2	0	0	1	1	29.6759	0.214749	0.214571	0.000204656	2	6.48852e-06	4.39133e-08
2	0	0	1	1	29.776	0.209751	0.20959	0.000202374	2	6.50868e-06	4.24155e-08
2	0	0	0	1	29.8761	0.204748	0.204628	0.000197467	2	6.52842e-06	4.04073e-08
2	0	0	0	1	29.9761	0.199748	0.199549	0.00019205	2	6.54773e-06	3.83233e-08
2	0	0	0	1	30.0761	0.194748	0.194603	0.000189467	2	6.56665e-06	3.6871e-08
2	0	0	0	1	30.1761	0.189748	0.189578	0.000185753	2	6.58518e-06	3.52147e-08
2	0	0	0	1	30.2761	0.184748	0.184564	0.000181909	2	6.60333e-06	3.35738e-08
2	0	0	0	1	30.3761	0.179748	0.179599	0.000176322	2	6.6211e-06	3.16673e-08
2	0	0	0	1	30.4761	0.174747	0.174605	0.000174481	2	6.63849e-06	3.04653e-08
2	0	0	0	1	30.5761	0.169747	0.169629	0.000170265	2	6.65548e-06	2.88818e-08
2	0	0	0	1	30.6761	0.164747	0.164599	0.000166176	2	6.67209e-06	2.73523e-08
2	0	0	0	1	30.7761	0.159747	0.159575	0.000163015	2	6.68829e-06	2.60131e-08
2	0	0	0	1	30.8761	0.154747	0.154575	0.000157792	2	6.70407e-06	2.43908e-08
2	0	0	0	1	30.9761	0.149747	0.149616	0.000153344	2	6.71939e-06	2.29428e-08
2	0	0	0	1	31.0761	0.144746	0.144593	0.000146853	2	6.73427e-06	2.12339e-08
2	0	0	0	1	31.1761	0.139746	0.139612	0.000142403	2	6.74864e-06	1.98811e-08
2	0	0	0	1	31.2761	0.134746	0.134622	0.00013813	2	6.76245e-06	1.85953e-08
2	0	0	0	1	31.3761	0.129746	0.129603	0.000131784	2	6.77565e-06	1.70796e-08
2	0	0	0	1	31.4761	0.124746	0.124577	0.00012337	2	6.78812e-06	1.53691e-08
2	0	0	0	1	31.5761	0.119746	0.11964	0.000114591	2	6.79979e-06	1.37097e-08
2	0	0	0	1	31.6761	0.114746	0.11458	0.000105406	2	6.81052e-06	1.20774e-08
2	0	0	0	1	31.7761	0.109745	0.109665	9.03583e-05	2	6.82008e-06	9.90915e-09
2	0	0	0	1	31.8761	0.104745	0.104618	7.63508e-05	2	6.82827e-06	7.98765e-09
2	0	0	0	1	31.9761	0.0997451	0.09963	5.7551e-05	2	6.83478e-06	5.73381e-09
2	0	0	0	1	32.0761	0.0947449	0.0945976	3.51514e-05	2	6.83924e-06	3.32523e-09
2	0	0	0	1	32.1761	0.0897447	0.0896616	7.31649e-06	2	6.84114e-06	6.56008e-10
2	0	0	0	1	32.2761	0.0847446	0.0845921	-2.86491e-05	2	6.83986e-06	-2.42349e-09
2	0	0	0	1	32.3761	0.0797444	0.0796318	-7.18834e-05	2	6.83471e-06	-5.72421e-09
2	0	0	0	1	32.4761	0.0747442	0.0746641	-0.00012254	2	6.82485e-06	-9.14934e-09
2	0	0	0	1	32.5761	0.0697441	0.0696868	-0.000184316	2	6.80934e-06	-1.28444e-08
2	0	0	0	1	32.6761	0.0647439	0.0646554	-0.000254677	2	6.78722e-06	-1.64663e-08
2	0	0	0	1	32.7761	0.0597438	0.0596167	-0.000332425	2	6.75757e-06	-1.98181e-08
2	0	0	0	1	32.8761	0.0547436	0.0546298	-0.000419298	2	6.71969e-06	-2.29062e-08
2	0	0	0	1	32.9761	0.0497435	0.049643	-0.000506772	2	6.67316e-06	-2.51577e-08
2	0	0	0	1	33.0761	0.0447433	0.0446117	-0.00058975	2	6.61808e-06	-2.63097e-08
2	0	0	0	1	33.1761	0.0397431	0.0396492	-0.000662261	2	6.55522e-06	-2.62581e-08
2	0	0	0	1	33.2761	0.034743	0.0346136	-0.000719405	2	6.48578e-06	-2.49012e-08
2	0	0	0	1	33.3761	0.0297428	0.0296204	-0.000757754	2	6.41152e-06	-2.2445e-08
2	0	0	0	1	33.4761	0.0247426	0.0246781	-0.000777905	2	6.33438e-06	-1.91972e-08
2	0	0	0	1	33.5761	0.0197425	0.0196245	-0.000778074	2	6.25629e-06	-1.52693e-08
2	0	0	0	1	33.6761	0.0147423	0.0146345	-0.000762069	2	6.17896e-06	-1.11525e-08
2	0	0	0	1	33.7761	0.00974217	0.00959682	-0.0007369	2	6.10364e-06	-7.07189e-09
2	0	0	0	1	33.8761	0.004742	0.00460681	-0.000705712	2	6.03123e-06	-3.25108e-09
2	0	0	0	1	33.9761	-0.000258155	-0.000331247	-0.000671812	2	5.96217e-06	2.22536e-10
2	0	0	0	1	34.0761	-0.00525832	-0.00541773	-0.000634807	2	5.89651e-06	3.43921e-09
2	0	0	0	1	34.1761	-0.0102585	-0.0104183	-0.000603443	2	5.83435e-06	6.28687e-09
2	0	0	0	1	34.2761	-0.0152586	-0.0153935	-0.000573227	2	5.77543e-06	8.82397e-09
2	0	0	0	1	34.3761	-0.0202588	-0.020393	-0.00054328	2	5.71949e-06	1.10791e-08
2	0	0	0	1	34.4761	-0.025259	-0.0253788	-0.000516987	2	5.66626e-06	1.31205e-08
2	0	0	0	1	34.5761	-0.0302591	-0.0304621	-0.000493739	2	5.61544e-06	1.50403e-08
2	0	0	0	1	34.6761	-0.0352593	-0.035415	-0.000474148	2	5.56678e-06	1.6792e-08
2	0	0	0	1	34.7761	-0.0402595	-0.0403934	-0.000456309	2	5.52006e-06	1.84319e-08
2	0	0	0	1	34.8761	-0.0452596	-0.0453505	-0.000439437	2	5.47509e-06	1.99287e-08
2	0	0	0	1	34.9761	-0.0502598	-0.0504476	-0.000425175	2	5.43167e-06	2.14491e-08
2	0	0	0	1	35.0761	-0.0552599	-0.0553846	-0.000411908	2	5.38959e-06	2.28133e-08
2	0	0	0	1	35.1761	-0.0602601	-0.0604393	-0.000400853	2	5.34882e-06	2.42273e-08
2	0	0	0	1	35.2761	-0.0652603	-0.0654006	-0.000387983	2	5.30921e-06	2.53744e-08
2	0	0	0	1	35.3761	-0.0702604	-0.0704267	-0.000378099	2	5.27064e-06	2.66282e-08
2	0	0	0	1	35.4761	-0.0752606	-0.0753955	-0.000369874	2	5.23304e-06	2.78869e-08
2	0	0	0	1	35.5761	-0.0802607	-0.0803633	-0.000361042	2	5.1963e-06	2.90145e-08
2	0	0	0	1	35.6761	-0.0852609	-0.0854073	-0.000352377	2	5.1604e-06	3.00955e-08
2	0	0	0	1	35.7761	-0.0902611	-0.0904037	-0.000344694	2	5.12525e-06	3.11617e-08
2	0	0	0	1	35.8761	-0.0952612	-0.0953969	-0.000339681	2	5.09079e-06	3.24045e-08
2	0	0	1	1	35.9763	-0.100261	-0.100435	-0.000333072	2	5.05693e-06	3.34519e-08
2	0	0	1	1	36.0763	-0.105262	-0.105356	-0.000327325	2	5.02373e-06	3.44856e-08
2	0	0	1	1	36.1763	-0.110262	-0.11038	-0.000320763	2	4.99109e-06	3.54057e-08
2	0	0	1	1	36.2763	-0.115262	-0.115431	-0.000316487	2	4.95898e-06	3.65324e-08
2	0	0	1	1	36.3763	-0.120262	-0.120368	-0.000312285	2	4.92735e-06	3.75891e-08
2	0	0	1	1	36.4763	-0.125262	-0.125336	-0.000306609	2	4.89617e-06	3.84291e-08
2	0	0	1	1	36.5763	-0.130262	-0.13036	-0.000303002	2	4.86542e-06	3.94993e-08
2	0	0	1	1	36.6763	-0.135263	-0.13543	-0.000300091	2	4.83509e-06	4.06415e-08
2	0	0	1	1	36.7763	-0.140263	-0.140377	-0.000296913	2	4.80514e-06	4.16798e-08
2	0	0	1	1	36.8763	-0.145263	-0.145401	-0.000292139	2	4.77551e-06	4.24772e-08
2	0	0	1	1	36.9763	-0.150263	-0.150408	-0.000288889	2	4.7462e-06	4.34511e-08
2	0	0	1	1	37.0763	-0.155263	-0.155389	-0.000286887	2	4.71716e-06	4.45792e-08
2	0	0	1	1	37.1763	-0.160263	-0.160455	-0.000284413	2	4.68841e-06	4.56353e-08
2	0	0	1	1	37.2763	-0.165264	-0.165366	-0.000281272	2	4.6599e-06	4.65129e-08
2	0	0	1	1	37.3763	-0.170264	-0.170373	-0.000279497	2	4.63158e-06	4.76187e-08
2	0	0	1	1	37.4763	-0.175264	-0.175383	-0.000279479	2	4.60346e-06	4.9016e-08
2	0	0	1	1	37.5763	-0.180264	-0.18038	-0.000278557	2	4.57549e-06	5.0246e-08
2	0	0	1	1	37.6763	-0.185264	-0.18538	-0.000276227	2	4.54764e-06	5.12071e-08
2	0	0	1	1	37.7763	-0.190264	-0.190413	-0.000274622	2	4.51991e-06	5.22914e-08
2	0	0	1	1	37.8763	-0.195264	-0.195337	-0.000273892	2	4.49222e-06	5.35012e-08
2	1	0	0	0	37.9712	-0.19999	-0.200179	-0.000258471	2	4.466e-06	5.17404e-08
2	1	0	1	0	38.0667	-0.195215	-0.19529	-0.000127408	2	4.4525e-06	2.48816e-08
2	1	0	1	0	38.1667	-0.190214	-0.190313	-0.000112348	2	4.44086e-06	2.13813e-08
2	1	0	1	0	38.2667	-0.185214	-0.185316	-9.99285e-05	2	4.43063e-06	1.85183e-08
2	1	0	1	0	38.3667	-0.180214	-0.180284	-8.85812e-05	2	4.4215e-06	1.59698e-08
2	1	0	1	0	38.4667	-0.175214	-0.175306	-8.03974e-05	2	4.41327e-06	1.40941e-08
2	1	0	1	0	38.5667	-0.170214	-0.170331	-7.50152e-05	2	4.40581e-06	1.27774e-08
2	1	0	1	0	38.6667	-0.165214	-0.165311	-6.6397e-05	2	4.39903e-06	1.09762e-08
2	1	0	1	0	38.7667	-0.160213	-0.160349	-6.22919e-05	2	4.39284e-06	9.98842e-09
2	1	0	1	0	38.8667	-0.155213	-0.155243	-5.59117e-05	2	4.38719e-06	8.6799e-09
2	1	0	1	0	38.9667	-0.150213	-0.150355	-5.21952e-05	2	4.38208e-06	7.84779e-09
2	1	0	1	0	39.0667	-0.145213	-0.145283	-4.79487e-05	2	4.37739e-06	6.96615e-09
2	1	0	1	0	39.1667	-0.140213	-0.140304	-4.25913e-05	2	4.37313e-06	5.97572e-09
2	1	0	1	0	39.2667	-0.135213	-0.135187	-3.9032e-05	2	4.36927e-06	5.2766e-09
2	1	0	1	0	39.3667	-0.130212	-0.13029	-3.64725e-05	2	4.36579e-06	4.75199e-09
2	1	0	1	0	39.4667	-0.125212	-0.125335	-3.23797e-05	2	4.36266e-06	4.05831e-09
2	1	0	1	0	39.5667	-0.120212	-0.120242	-2.92673e-05	2	4.35988e-06	3.51916e-09
2	1	0	1	0	39.6667	-0.115212	-0.115292	-2.50439e-05	2	4.35743e-06	2.88737e-09
2	1	0	1	0	39.7667	-0.110212	-0.110323	-2.29966e-05	2	4.35526e-06	2.53707e-09
2	1	0	1	0	39.8667	-0.105212	-0.105302	-1.91583e-05	2	4.35339e-06	2.0174e-09
2	1	0	1	0	39.9667	-0.100211	-0.100308	-1.80596e-05	2	4.35181e-06	1.81153e-09
2	1	0	0	0	40.0669	-0.0952112	-0.0953004	-1.40428e-05	3	4.35046e-06	1.33828e-09
2	1	0	0	0	40.1669	-0.0902111	-0.0902669	-1.31984e-05	3	4.34938e-06	1.19138e-09
2	1	0	0	0	40.2669	-0.0852109	-0.0853003	-1.08686e-05	3	4.34854e-06	9.27091e-10
2	1	0	0	0	40.3669	-0.0802107	-0.0803166	-6.85531e-06	3	4.34793e-06	5.50595e-10
2	1	0	0	0	40.4669	-0.0752106	-0.0753266	-5.00766e-06	3	4.34756e-06	3.7721e-10
2	1	0	0	0	40.5669	-0.0702104	-0.0703101	-3.00986e-06	3	4.34738e-06	2.11624e-10
2	1	0	0	0	40.6669	-0.0652103	-0.0652915	-2.53117e-06	3	4.34742e-06	1.65264e-10
2	1	0	0	0	40.7669	-0.0602101	-0.0603269	5.51191e-07	3	4.34769e-06	-3.32516e-11
2	1	0	0	0	40.8669	-0.0552099	-0.0553676	2.30699e-06	3	4.34816e-06	-1.27732e-10
2	1	0	0	0	40.9669	-0.0502098	-0.0502843	5.39995e-06	3	4.34889e-06	-2.71533e-10
2	1	0	0	0	41.0669	-0.0452096	-0.0452933	7.36418e-06	3	4.3498e-06	-3.33548e-10
2	1	0	0	0	41.1669	-0.0402095	-0.0403022	9.41143e-06	3	4.35096e-06	-3.79301e-10
2	1	0	0	0	41.2669	-0.0352093	-0.0353758	1.2008e-05	3	4.35239e-06	-4.24794e-10
2	1	0	0	0	41.3669	-0.0302091	-0.0303317	1.51928e-05	3	4.35412e-06	-4.60825e-10
2	1	0	0	0	41.4669	-0.025209	-0.0252993	1.90913e-05	3	4.3562e-06	-4.82996e-10
2	1	0	0	0	41.5669	-0.0202088	-0.0203326	2.40372e-05	3	4.35868e-06	-4.88739e-10
2	1	0	0	0	41.6669	-0.0152086	-0.015332	3.21237e-05	3	4.36165e-06	-4.92522e-10
2	1	0	0	0	41.7669	-0.0102085	-0.0103473	3.73258e-05	3	4.36526e-06	-3.86221e-10
2	1	0	0	0	41.8669	-0.00520832	-0.00534564	4.51739e-05	3	4.36963e-06	-2.41483e-10
2	1	0	0	0	41.9669	-0.000208153	-0.00026764	5.71606e-05	3	4.37506e-06	-1.52985e-11
2	1	0	0	0	42.0669	0.00479201	0.0047001	7.12282e-05	3	4.38174e-06	3.3478e-10
2	1	0	0	0	42.1669	0.00979217	0.00964664	8.9846e-05	3	4.39005e-06	8.66713e-10
2	1	0	0	0	42.2669	0.0147923	0.0146388	0.000114727	3	4.40052e-06	1.67947e-09
2	1	0	0	0	42.3669	0.0197925	0.0197062	0.000144837	3	4.41369e-06	2.85419e-09
2	1	0	0	0	42.4669	0.0247926	0.0246898	0.000184419	3	4.43027e-06	4.55327e-09
2	1	0	0	0	42.5669	0.0297928	0.0296936	0.000229029	3	4.45111e-06	6.8007e-09
2	1	0	0	0	42.6669	0.034793	0.0347122	0.000285289	3	4.47707e-06	9.90301e-09
2	1	0	0	0	42.7669	0.0397931	0.0397637	0.000351594	3	4.50913e-06	1.39807e-08
2	1	0	0	0	42.8669	0.0447933	0.0447262	0.000424575	3	4.54809e-06	1.89896e-08
2	1	0	0	0	42.9669	0.0497935	0.0496557	0.000501884	3	4.59469e-06	2.49214e-08
2	1	0	0	0	43.0669	0.0547936	0.0547719	0.000583128	3	4.64947e-06	3.1939e-08
2	1	0	0	0	43.1669	0.0597938	0.0596962	0.000665131	3	4.7123e-06	3.97058e-08
2	1	0	0	0	43.2669	0.0647939	0.0647466	0.000739297	3	4.78279e-06	4.7867e-08
2	1	0	0	0	43.3669	0.0697941	0.069743	0.000798483	3	4.86004e-06	5.56886e-08
2	1	0	0	0	43.4669	0.0747942	0.0746694	0.000845961	3	4.94277e-06	6.31673e-08
2	1	0	0	0	43.5669	0.0797944	0.0797495	0.000877549	3	5.02948e-06	6.99841e-08
2	1	0	0	0	43.6669	0.0847946	0.0846886	0.00089472	3	5.11856e-06	7.57726e-08
2	1	0	0	0	43.7669	0.0897947	0.0897549	0.000896312	3	5.20849e-06	8.04484e-08
2	1	0	0	0	43.8669	0.0947949	0.0947651	0.000886429	3	5.298e-06	8.40025e-08
2	1	0	0	0	43.9669	0.0997951	0.0996989	0.000869572	3	5.38607e-06	8.66954e-08
2	1	0	0	0	44.0669	0.104795	0.104688	0.000844263	3	5.47203e-06	8.83841e-08
2	1	0	0	0	44.1669	0.109795	0.109736	0.000816372	3	5.55544e-06	8.95855e-08
2	1	0	0	0	44.2669	0.114796	0.114749	0.000788604	3	5.63609e-06	9.04919e-08
2	1	0	0	0	44.3669	0.119796	0.119709	0.000762256	3	5.71396e-06	9.12488e-08
2	1	0	0	0	44.4669	0.124796	0.124715	0.00073493	3	5.7891e-06	9.16566e-08
2	1	0	0	0	44.5669	0.129796	0.129678	0.00070984	3	5.86166e-06	9.20508e-08
2	1	0	0	0	44.6669	0.134796	0.134725	0.000686391	3	5.93178e-06	9.24744e-08
2	1	0	0	0	44.7669	0.139796	0.139632	0.000665753	3	5.99965e-06	9.29602e-08
2	1	0	0	0	44.8669	0.144796	0.144677	0.000646619	3	6.06549e-06	9.35508e-08
2	1	0	0	0	44.9669	0.149797	0.149677	0.000627636	3	6.12943e-06	9.39429e-08
2	1	0	0	0	45.0669	0.154797	0.154682	0.000611572	3	6.1917e-06	9.45994e-08
2	1	0	0	0	45.1669	0.159797	0.159675	0.000596125	3	6.25237e-06	9.51865e-08
2	1	0	0	0	45.2669	0.164797	0.164715	0.000582633	3	6.31161e-06	9.59686e-08
2	1	0	0	0	45.3669	0.169797	0.16966	0.000570256	3	6.36956e-06	9.67495e-08
2	1	0	0	0	45.4669	0.174797	0.174702	0.000559449	3	6.42631e-06	9.77367e-08
2	1	0	0	0	45.5669	0.179798	0.179675	0.000549455	3	6.48197e-06	9.87232e-08
2	1	0	0	0	45.6669	0.184798	0.18472	0.000539943	3	6.53663e-06	9.97382e-08
2	1	0	0	0	45.7669	0.189798	0.189645	0.000531643	3	6.59037e-06	1.00823e-07
2	1	0	0	0	45.8669	0.194798	0.194699	0.000521419	3	6.64328e-06	1.0152e-07
2	1	0	0	0	45.9669	0.199798	0.199673	0.000514952	3	6.69544e-06	1.02822e-07
2	1	0	0	0	46.0669	0.204798	0.204687	0.000509248	3	6.7469e-06	1.04237e-07
2	1	0	0	0	46.167	0.209799	0.209679	0.000501228	3	6.79776e-06	1.05097e-07
2	1	0	1	0	46.2671	0.214799	0.214638	0.00049699	3	6.84804e-06	1.06673e-07
2	1	0	1	0	46.3671	0.219799	0.219691	0.000490269	3	6.89776e-06	1.07708e-07
2	1	0	1	0	46.4671	0.224799	0.224688	0.000488363	3	6.947e-06	1.09729e-07
2	1	0	1	0	46.5671	0.229799	0.229678	0.000482148	3	6.9958e-06	1.10739e-07
2	1	0	1	0	46.6671	0.234799	0.234716	0.000479363	3	7.04423e-06	1.12514e-07
2	1	0	1	0	46.7671	0.2398	0.239679	0.000475917	3	7.09231e-06	1.14067e-07
2	1	0	1	0	46.8671	0.2448	0.244729	0.000473622	3	7.14011e-06	1.15909e-07
2	1	0	1	0	46.9671	0.2498	0.249698	0.000470787	3	7.18764e-06	1.17555e-07
2	1	0	1	0	47.0671	0.2548	0.254675	0.000469354	3	7.23498e-06	1.19533e-07
2	1	0	1	0	47.1671	0.2598	0.259686	0.000468318	3	7.2822e-06	1.21616e-07
2	1	0	1	0	47.2671	0.2648	0.264704	0.00046745	3	7.3293e-06	1.23736e-07
2	1	0	1	0	47.3671	0.2698	0.269652	0.000468469	3	7.37637e-06	1.26324e-07
2	1	0	1	0	47.4671	0.274801	0.274735	0.000467344	3	7.42341e-06	1.28396e-07
2	1	0	1	0	47.5671	0.279801	0.279701	0.000467613	3	7.47052e-06	1.30792e-07
2	1	0	1	0	47.6671	0.284801	0.284727	0.000470213	3	7.51777e-06	1.33882e-07
2	1	0	1	0	47.7671	0.289801	0.289738	0.000472463	3	7.56518e-06	1.3689e-07
2	1	0	1	0	47.8671	0.294801	0.294703	0.000474806	3	7.61283e-06	1.39927e-07
2	1	0	1	0	47.9661	0.299751	0.299633	0.000479639	3	7.66028e-06	1.43716e-07
2	0	0	1	0	48.0465	0.296251	0.296121	0.000339848	3	7.68959e-06	1.00636e-07
2	0	0	1	0	48.1465	0.291251	0.291113	0.000314993	3	7.72212e-06	9.16984e-08
2	0	0	1	0	48.2465	0.286251	0.286107	0.000296262	3	7.75252e-06	8.47625e-08
2	0	0	1	0	48.3465	0.281251	0.281128	0.000282228	3	7.78131e-06	7.9342e-08
2	0	0	1	0	48.4465	0.276251	0.276117	0.000269679	3	7.80881e-06	7.44631e-08
2	0	0	1	0	48.5465	0.271251	0.271109	0.000261238	3	7.83521e-06	7.0824e-08
2	0	0	1	0	48.6465	0.26625	0.26612	0.000250943	3	7.86067e-06	6.67811e-08
2	0	0	1	0	48.7465	0.26125	0.261051	0.000243828	3	7.88532e-06	6.36515e-08
2	0	0	1	0	48.8465	0.25625	0.256118	0.000236559	3	7.90924e-06	6.05871e-08
2	0	0	1	0	48.9465	0.25125	0.251154	0.000231348	3	7.93245e-06	5.8104e-08
2	0	0	1	0	49.0465	0.24625	0.246098	0.000224839	3	7.95509e-06	5.53325e-08
2	0	0	1	0	49.1465	0.24125	0.241098	0.000218724	3	7.97717e-06	5.2734e-08
2	0	0	1	0	49.2465	0.236249	0.236129	0.000214706	3	7.99872e-06	5.06983e-08
2	0	0	1	0	49.3465	0.231249	0.231134	0.000209655	3	8.0198e-06	4.84585e-08
2	0	0	1	0	49.4465	0.226249	0.226102	0.000206398	3	8.04041e-06	4.6667e-08
2	0	0	1	0	49.5465	0.221249	0.221134	0.000201058	3	8.06058e-06	4.44608e-08
2	0	0	1	0	49.6465	0.216249	0.216087	0.000196425	3	8.08034e-06	4.24449e-08
2	0	0	1	0	49.7465	0.211249	0.211093	0.000192426	3	8.09969e-06	4.06197e-08
2	0	0	0	0	49.8467	0.206248	0.206109	0.000187683	3	8.11871e-06	3.86832e-08
2	0	0	0	0	49.9467	0.201248	0.201078	0.000185067	3	8.13726e-06	3.72128e-08
2	0	0	0	0	50.0467	0.196248	0.196082	0.000181676	3	8.15546e-06	3.56234e-08
2	0	0	0	0	50.1467	0.191248	0.191076	0.000175758	3	8.17329e-06	3.35832e-08
2	0	0	0	0	50.2467	0.186248	0.18608	0.000173289	3	8.19075e-06	3.22456e-08
2	0	0	0	0	50.3467	0.181248	0.181129	0.000170183	3	8.20784e-06	3.08252e-08
2	0	0	0	0	50.4467	0.176247	0.176124	0.000167458	3	8.22454e-06	2.94934e-08
2	0	0	0	0	50.5467	0.171247	0.171097	0.000162613	3	8.24089e-06	2.78226e-08
2	0	0	0	0	50.6467	0.166247	0.166153	0.00015819	3	8.25685e-06	2.62837e-08
2	0	0	0	0	50.7467	0.161247	0.161074	0.00015595	3	8.27242e-06	2.51194e-08
2	0	0	0	0	50.8467	0.156247	0.156116	0.000149895	3	8.28757e-06	2.34009e-08
2	0	0	0	0	50.9467	0.151247	0.151115	0.000145652	3	8.30228e-06	2.20102e-08
2	0	0	0	0	51.0467	0.146247	0.146059	0.000141785	3	8.31656e-06	2.0709e-08
2	0	0	0	0	51.1467	0.141246	0.141045	0.000135972	3	8.33035e-06	1.91781e-08
2	0	0	0	0	51.2467	0.136246	0.136099	0.000130842	3	8.3436e-06	1.78076e-08
2	0	0	0	0	51.3467	0.131246	0.131104	0.00012337	3	8.35627e-06	1.61744e-08
2	0	0	0	0	51.4467	0.126246	0.126102	0.000116904	3	8.36825e-06	1.47418e-08
2	0	0	0	0	51.5467	0.121246	0.121057	0.000108444	3	8.37947e-06	1.3128e-08
2	0	0	0	0	51.6467	0.116246	0.116133	9.98103e-05	3	8.38979e-06	1.15913e-08
2	0	0	0	0	51.7467	0.111245	0.111136	8.77811e-05	3	8.39902e-06	9.7556e-09
2	0	0	0	0	51.8467	0.106245	0.106074	7.31589e-05	3	8.40697e-06	7.76029e-09
2	0	0	0	0	51.9467	0.101245	0.101106	5.53059e-05	3	8.41335e-06	5.59174e-09
2	0	0	0	0	52.0467	0.0962449	0.0960765	3.51196e-05	3	8.41781e-06	3.37416e-09
2	0	0	0	0	52.1467	0.0912448	0.0911766	8.59359e-06	3	8.41992e-06	7.83534e-10
2	0	0	0	0	52.2467	0.0862446	0.086089	-2.41925e-05	3	8.41908e-06	-2.08271e-09
2	0	0	0	0	52.3467	0.0812445	0.0811393	-6.25816e-05	3	8.41467e-06	-5.07783e-09
2	0	0	0	0	52.4467	0.0762443	0.076161	-0.000110983	3	8.40588e-06	-8.45254e-09
2	0	0	0	0	52.5467	0.0712441	0.0711254	-0.000169378	3	8.39181e-06	-1.20471e-08
2	0	0	0	0	52.6467	0.066244	0.0661269	-0.000234835	3	8.37154e-06	-1.55289e-08
2	0	0	0	0	52.7467	0.0612438	0.0611379	-0.000310778	3	8.34414e-06	-1.90003e-08
2	0	0	0	0	52.8467	0.0562437	0.0561437	-0.000394521	3	8.30882e-06	-2.21499e-08
2	0	0	0	0	52.9467	0.0512435	0.0511123	-0.000479863	3	8.26504e-06	-2.45269e-08
2	0	0	0	0	53.0467	0.0462433	0.0461605	-0.000565224	3	8.2126e-06	-2.6091e-08
2	0	0	0	0	53.1467	0.0412432	0.0410995	-0.000641541	3	8.15204e-06	-2.6367e-08
2	0	0	0	0	53.2467	0.036243	0.0361529	-0.000706595	3	8.08436e-06	-2.55455e-08
2	0	0	0	0	53.3467	0.0312429	0.0311619	-0.000755131	3	8.01105e-06	-2.35313e-08
2	0	0	0	0	53.4467	0.0262427	0.0261369	-0.000781425	3	7.93399e-06	-2.0424e-08
2	0	0	0	0	53.5467	0.0212425	0.0211299	-0.000789132	3	7.85509e-06	-1.66743e-08
2	0	0	0	0	53.6467	0.0162424	0.0160721	-0.00078384	3	7.77617e-06	-1.25979e-08
2	0	0	0	0	53.7467	0.0112422	0.0111881	-0.000760769	3	7.69873e-06	-8.51153e-09
2	0	0	0	0	53.8467	0.00624205	0.00612173	-0.000731795	3	7.62381e-06	-4.47985e-09
2	0	0	0	0	53.9467	0.00124189	0.00116247	-0.000697756	3	7.55205e-06	-8.11119e-10
2	0	0	0	0	54.0467	-0.00375827	-0.00389221	-0.000664976	3	7.48363e-06	2.58822e-09
2	0	0	0	0	54.1467	-0.00875843	-0.00890342	-0.000630584	3	7.41874e-06	5.61435e-09
2	0	0	0	0	54.2467	-0.0137586	-0.0138595	-0.000599071	3	7.35718e-06	8.30283e-09
2	0	0	0	0	54.3467	-0.0187588	-0.0189481	-0.000568696	3	7.2987e-06	1.07757e-08
2	0	0	0	0	54.4467	-0.0237589	-0.0238819	-0.000541565	3	7.24305e-06	1.29336e-08
2	0	0	0	0	54.5467	-0.0287591	-0.0288327	-0.000518808	3	7.18995e-06	1.49586e-08
2	0	0	0	0	54.6467	-0.0337592	-0.0339075	-0.00049703	3	7.13915e-06	1.68531e-08
2	0	0	0	0	54.7467	-0.0387594	-0.0388795	-0.000477953	3	7.09039e-06	1.85826e-08
2	0	0	0	0	54.8467	-0.0437596	-0.0438759	-0.000458934	3	7.04345e-06	2.01361e-08
2	0	0	0	0	54.9467	-0.0487597	-0.0489062	-0.000444333	3	6.99815e-06	2.17306e-08
2	0	0	0	0	55.0467	-0.0537599	-0.0539492	-0.000431479	3	6.9543e-06	2.32779e-08
2	0	0	0	0	55.1467	-0.05876	-0.0589307	-0.000417412	3	6.9118e-06	2.45984e-08
2	0	0	0	0	55.2467	-0.0637602	-0.0638868	-0.000404775	3	6.87051e-06	2.58598e-08
2	0	0	0	0	55.3467	-0.0687604	-0.0689192	-0.000394102	3	6.83032e-06	2.71612e-08
2	0	0	0	0	55.4467	-0.0737606	-0.0738816	-0.000385677	3	6.79115e-06	2.84944e-08
2	0	0	0	0	55.5467	-0.0787607	-0.0788876	-0.0003762	3	6.75289e-06	2.96775e-08
2	0	0	0	0	55.6467	-0.0837609	-0.0839178	-0.000368793	3	6.71551e-06	3.09483e-08
2	0	0	0	0	55.7467	-0.088761	-0.0888782	-0.000361286	3	6.67892e-06	3.21105e-08
2	0	0	0	0	55.8467	-0.0937612	-0.0939127	-0.000353198	3	6.64306e-06	3.31698e-08
2	0	0	1	0	55.9469	-0.0987613	-0.0989292	-0.000346307	3	6.60782e-06	3.42599e-08
2	0	0	1	0	56.0469	-0.103762	-0.10388	-0.000340888	3	6.5733e-06	3.54114e-08
2	0	0	1	0	56.1469	-0.108762	-0.108943	-0.00033588	3	6.53937e-06	3.65918e-08
2	0	0	1	0	56.2469	-0.113762	-0.113891	-0.000329834	3	6.50599e-06	3.7565e-08
2	0	0	1	0	56.3469	-0.118762	-0.118901	-0.00032561	3	6.47311e-06	3.87154e-08
2	0	0	1	0	56.4469	-0.123762	-0.123871	-0.000319622	3	6.44074e-06	3.95919e-08
2	0	0	1	0	56.5469	-0.128762	-0.128913	-0.000317052	3	6.40881e-06	4.08721e-08
2	0	0	1	0	56.6469	-0.133762	-0.133856	-0.000313274	3	6.37733e-06	4.19336e-08
2	0	0	1	0	56.7469	-0.138763	-0.138868	-0.000306671	3	6.34624e-06	4.25869e-08
2	0	0	1	0	56.8469	-0.143763	-0.143881	-0.00030281	3	6.31551e-06	4.35684e-08
2	0	0	1	0	56.9469	-0.148763	-0.148901	-0.000301538	3	6.28515e-06	4.48994e-08
2	0	0	1	0	57.0469	-0.153763	-0.153861	-0.000298678	3	6.2551e-06	4.59548e-08
2	0	0	1	0	57.1469	-0.158763	-0.158912	-0.000294161	3	6.22532e-06	4.67458e-08
2	0	0	1	0	57.2469	-0.163763	-0.163842	-0.000292326	3	6.19582e-06	4.78952e-08
2	0	0	1	0	57.3469	-0.168764	-0.16889	-0.000291402	3	6.16656e-06	4.92149e-08
2	0	0	1	0	57.4469	-0.173764	-0.173829	-0.000289712	3	6.13751e-06	5.03604e-08
2	0	0	1	0	57.5469	-0.178764	-0.1789	-0.000286917	3	6.10865e-06	5.13295e-08
2	0	0	1	0	57.6469	-0.183764	-0.183863	-0.000284549	3	6.07991e-06	5.2318e-08
2	0	0	1	0	57.7469	-0.188764	-0.188869	-0.000284852	3	6.0513e-06	5.37998e-08
2	0	0	1	0	57.8469	-0.193764	-0.19387	-0.000284397	3	6.02279e-06	5.51359e-08
2	0	0	1	0	57.9469	-0.198765	-0.198848	-0.000283332	3	5.99433e-06	5.634e-08
2	1	0	1	1	58.0373	-0.196715	-0.196788	-0.00014169	3	5.97724e-06	2.78829e-08
2	1	0	1	1	58.1373	-0.191714	-0.191763	-0.000122572	3	5.96439e-06	2.35048e-08
2	1	0	1	1	58.2373	-0.186714	-0.186846	-0.0001086	3	5.95314e-06	2.02915e-08
2	1	0	1	1	58.3373	-0.181714	-0.181797	-9.72365e-05	3	5.94305e-06	1.76773e-08
2	1	0	1	1	58.4373	-0.176714	-0.176759	-9.04677e-05	3	5.9339e-06	1.5991e-08
2	1	0	1	1	58.5373	-0.171714	-0.1718	-8.26531e-05	3	5.92555e-06	1.41998e-08
2	1	0	1	1	58.6373	-0.166714	-0.166812	-7.78044e-05	3	5.91789e-06	1.29787e-08
2	1	0	1	1	58.7373	-0.161713	-0.161815	-7.01117e-05	3	5.91084e-06	1.13451e-08
2	1	0	1	1	58.8373	-0.156713	-0.156853	-6.40706e-05	3	5.90434e-06	1.00497e-08
2	1	0	1	1	58.9373	-0.151713	-0.151793	-5.87679e-05	3	5.8984e-06	8.92058e-09
2	1	0	1	1	59.0373	-0.146713	-0.14676	-5.39987e-05	3	5.89291e-06	7.92484e-09
2	1	0	1	1	59.1373	-0.141713	-0.141764	-4.91322e-05	3	5.88783e-06	6.96516e-09
2	1	0	1	1	59.2373	-0.136713	-0.136787	-4.7168e-05	3	5.88318e-06	6.45199e-09
2	1	0	1	1	59.3373	-0.131712	-0.131785	-4.22451e-05	3	5.87891e-06	5.56725e-09
2	1	0	1	1	59.4373	-0.126712	-0.126819	-3.99894e-05	3	5.87502e-06	5.07141e-09
2	1	0	1	1	59.5373	-0.121712	-0.121812	-3.58383e-05	3	5.87146e-06	4.36554e-09
2	1	0	1	1	59.6373	-0.116712	-0.116788	-3.26765e-05	3	5.86824e-06	3.81622e-09
2	1	0	1	1	59.7373	-0.111712	-0.11178	-2.93645e-05	3	5.86534e-06	3.28236e-09
2	1	0	1	1	59.8373	-0.106712	-0.106848	-2.81563e-05	3	5.86274e-06	3.00845e-09
2	1	0	1	1	59.9373	-0.101711	-0.101843	-2.41466e-05	3	5.86041e-06	2.45917e-09
2	1	0	0	1	60.0375	-0.0967113	-0.0968026	-2.13239e-05	3	5.85833e-06	2.0642e-09
2	1	0	0	1	60.1375	-0.0917111	-0.0918465	-1.85259e-05	3	5.85655e-06	1.70154e-09
2	1	0	0	1	60.2375	-0.086711	-0.0867834	-1.59858e-05	3	5.85501e-06	1.3873e-09
2	1	0	0	1	60.3375	-0.0817108	-0.0818177	-1.40039e-05	3	5.85371e-06	1.14577e-09
2	1	0	0	1	60.4375	-0.0767106	-0.0767832	-1.13102e-05	3	5.85264e-06	8.6843e-10
2	1	0	0	1	60.5375	-0.0717105	-0.0718738	-9.56143e-06	3	5.8518e-06	6.87216e-10
2	1	0	0	1	60.555	-0.0708354	-0.071049	-1.01673e-05	3	5.85167e-06	7.22376e-10