File: AutoAnalysis Examples/EC/C003B-20ppb-B_C01.mpt
EC-Lab ASCII FILE
Nb header lines : 59

Cyclic Voltammetry

Run on channel : 1 (SN 22398)
User :
CE vs. WE compliance from -10 V to 10 V
Electrode connection : standard
Ewe ctrl range : min = -1.00 V, max = 1.00 V
Safety Limits :
	Ewe min = -2.00 V
	Ewe max = 2.00 V
	|I| = 50.000 mA
	for t > 10 ms
Acquisition started on : 11/21/2018 11:19:02
Technique started on : 11/21/2018 11:19:02
Saved on :
	File : C003B-20ppb-B_C01.mpr
	Directory : \\ECCOMPUTER\Users\Lab User\Google Drive\Electrochemical Data\EC-Lab\Data\FREDsense\Tim\2018.11.21 - EC comparison to High Throughput\
	Host : 172.16.1.30
Device : SP-50 (SN 0301030103010301)
Address : USB
EC-Lab for windows v11.02 (software)
Internet server v11.02 (firmware)
Command interpretor v11.02 (firmware)
Electrode material : Au/Pd
Initial state :
Electrolyte : NaCl (0.2M)
Comments : Fe(CN)63-/Fe(CN)64- 5.10-3 M
Reference electrode : SCE Saturated Calomel Electrode (0.241 V)
Electrode surface area : 0.001 cm²
Characteristic mass : 0.001 g
Equivalent Weight : 0.000 g/eq.
Density : 0.000 g/cm3
Cycle Definition : Charge/Discharge alternance
Ei (V)              -0.100
vs.                 Ref
dE/dt               50.000
dE/dt unit          mV/s
E1 (V)              0.300
vs.                 Ref
Step percent        50
N                   10
E range min (V)     -1.000
E range max (V)     1.000
I Range             Auto
I Range min         Unset
I Range max         Unset
I Range init        Unset
Bandwidth           5
E2 (V)              -0.200
vs.                 Ref
nc cycles           2
Reverse Scan        1
Ef (V)              0.000
vs.                 Eoc

mode	ox/red	error	control changes	counter inc.	time/s	control/V	Ewe/V	<I>/mA	cycle number	(Q-Qo)/C	P/W
2	1	0	1	0	0.000000000000000E+000	-0.0984851	-0.0986212	-4.63474e-05	1	0.0000000E+000	4.57084e-09
2	1	0	0	0	0.111	-0.0929349	-0.093293	-6.71216e-06	1	2.22772e-09	6.26197e-10
2	1	0	1	0	0.2265	-0.0871597	-0.0874486	3.39184e-05	1	7.10665e-09	-2.96612e-09
2	1	0	1	0	0.3265	-0.0821595	-0.0824703	4.00584e-05	1	1.11287e-08	-3.30363e-09
2	1	0	1	0	0.4265	-0.0771593	-0.0774654	4.32626e-05	1	1.55919e-08	-3.35136e-09
2	1	0	1	0	0.5265	-0.0721591	-0.0724192	4.62549e-05	1	2.03819e-08	-3.34974e-09
2	1	0	1	0	0.6265	-0.0671589	-0.0673953	4.9581e-05	1	2.54242e-08	-3.34153e-09
2	1	0	1	0	0.7265	-0.0621587	-0.0624307	4.88727e-05	1	3.0706e-08	-3.05116e-09
2	1	0	1	0	0.8265	-0.0571585	-0.05741	5.29301e-05	1	3.61959e-08	-3.03872e-09
2	1	0	1	0	0.9265	-0.0521583	-0.0524231	5.75051e-05	1	4.19137e-08	-3.0146e-09
2	1	0	1	0	1.0265	-0.0471581	-0.0474321	5.67791e-05	1	4.7841e-08	-2.69315e-09
2	1	0	1	0	1.1265	-0.0421579	-0.0424262	5.87645e-05	1	5.39975e-08	-2.49315e-09
2	1	0	1	0	1.2265	-0.0371577	-0.0373651	6.27107e-05	1	6.04157e-08	-2.34319e-09
2	1	0	1	0	1.3265	-0.0321575	-0.0324281	6.58019e-05	1	6.71165e-08	-2.13383e-09
2	1	0	1	0	1.4265	-0.0271573	-0.0273713	6.92658e-05	1	7.41688e-08	-1.8959e-09
2	1	0	1	0	1.5265	-0.022157	-0.022375	7.36817e-05	1	8.16693e-08	-1.64863e-09
2	1	0	1	0	1.6265	-0.0171568	-0.0174019	7.98535e-05	1	8.97064e-08	-1.3896e-09
2	1	0	1	0	1.7265	-0.0121566	-0.0124119	8.97524e-05	1	9.84542e-08	-1.114e-09
2	1	0	1	0	1.8265	-0.00715643	-0.00743038	9.95895e-05	1	1.08117e-07	-7.39988e-10
2	1	0	1	0	1.9265	-0.00215623	-0.00237783	0.000112845	1	1.18999e-07	-2.68325e-10
2	1	0	1	0	2.0265	0.00284397	0.00270971	0.000132591	1	1.3158e-07	3.59283e-10
2	1	0	1	0	2.1265	0.00784417	0.00762551	0.000157139	1	1.46297e-07	1.19826e-09
2	1	0	1	0	2.2265	0.0128444	0.0126463	0.000190713	1	1.63888e-07	2.4118e-09
2	1	0	1	0	2.3265	0.0178446	0.0176257	0.00023403	1	1.85272e-07	4.12493e-09
2	1	0	1	0	2.4265	0.0228448	0.022639	0.000289226	1	2.11582e-07	6.54779e-09
2	1	0	1	0	2.5265	0.027845	0.0276025	0.00035861	1	2.44217e-07	9.89854e-09
2	1	0	1	0	2.6265	0.0328452	0.0326741	0.000448091	1	2.84718e-07	1.4641e-08
2	1	0	1	0	2.7265	0.0378454	0.0376185	0.000552963	1	3.34836e-07	2.08017e-08
2	1	0	1	0	2.8265	0.0428456	0.0426393	0.000673953	1	3.96368e-07	2.87369e-08
2	1	0	1	0	2.9265	0.0478458	0.0476781	0.000810389	1	4.70827e-07	3.86378e-08
2	1	0	1	0	3.0265	0.052846	0.0526723	0.00095866	1	5.59591e-07	5.04948e-08
2	1	0	1	0	3.1265	0.0578462	0.0576719	0.00110611	1	6.63139e-07	6.37914e-08
2	1	0	1	0	3.2265	0.0628464	0.0626587	0.00124697	1	7.81285e-07	7.81332e-08
2	1	0	1	0	3.3265	0.0678466	0.067724	0.00137618	1	9.13002e-07	9.32005e-08
2	1	0	1	0	3.4265	0.0728468	0.0726355	0.00148171	1	1.05641e-06	1.07625e-07
2	1	0	1	0	3.5265	0.077847	0.0776245	0.00156008	1	1.20908e-06	1.21101e-07
2	1	0	1	0	3.6265	0.0828472	0.0826537	0.00161091	1	1.36824e-06	1.33148e-07
2	1	0	1	0	3.7265	0.0878474	0.0876872	0.001637	1	1.53117e-06	1.43544e-07
2	1	0	1	0	3.8265	0.0928476	0.0926178	0.00163798	1	1.69542e-06	1.51706e-07
2	1	0	1	0	3.9265	0.0978478	0.0976173	0.00162183	1	1.8589e-06	1.58319e-07
2	1	0	1	0	4.0265	0.102848	0.102682	0.0015931	1	2.02005e-06	1.63582e-07
2	1	0	1	0	4.1265	0.107848	0.107645	0.00155559	1	2.17783e-06	1.67451e-07
2	1	0	1	0	4.2265	0.112848	0.112646	0.00151379	1	2.33156e-06	1.70522e-07
2	1	0	1	0	4.3265	0.117849	0.117648	0.0014671	1	2.48094e-06	1.72602e-07
2	1	0	1	0	4.4265	0.122849	0.122689	0.00142259	1	2.62581e-06	1.74536e-07
2	1	0	1	0	4.5265	0.127849	0.127651	0.00137914	1	2.76623e-06	1.76048e-07
2	1	0	1	0	4.6265	0.132849	0.132636	0.00133939	1	2.90237e-06	1.77652e-07
2	1	0	1	0	4.7265	0.137849	0.137635	0.00129809	1	3.03444e-06	1.78662e-07
2	1	0	1	0	4.8265	0.14285	0.142634	0.00126088	1	3.1627e-06	1.79845e-07
2	1	0	0	0	4.9267	0.14785	0.147693	0.00122672	1	3.28764e-06	1.81179e-07
2	1	0	0	0	5.0267	0.15285	0.152684	0.00119847	1	3.40905e-06	1.82987e-07
2	1	0	0	0	5.1267	0.15785	0.157648	0.00116599	1	3.52745e-06	1.83817e-07
2	1	0	0	0	5.2267	0.16285	0.162671	0.00113871	1	3.64304e-06	1.85236e-07
2	1	0	0	0	5.3267	0.167851	0.167702	0.0011151	1	3.75608e-06	1.87005e-07
2	1	0	0	0	5.4267	0.172851	0.172649	0.00109255	1	3.86672e-06	1.88628e-07
2	1	0	0	0	5.5267	0.177851	0.177627	0.0010714	1	3.97517e-06	1.9031e-07
2	1	0	0	0	5.6267	0.182851	0.182714	0.00105139	1	4.08159e-06	1.92103e-07
2	1	0	0	0	5.7267	0.187851	0.187643	0.00103271	1	4.18615e-06	1.93781e-07
2	1	0	0	0	5.8267	0.192852	0.192697	0.00101712	1	4.28898e-06	1.95995e-07
2	1	0	0	0	5.9267	0.197852	0.19765	0.00100153	1	4.39025e-06	1.97952e-07
2	1	0	0	0	6.0267	0.202852	0.202706	0.000987428	1	4.49003e-06	2.00157e-07
2	1	0	0	0	6.1267	0.207852	0.207708	0.000974408	1	4.58851e-06	2.02392e-07
2	1	0	0	0	6.2267	0.212852	0.212673	0.00096358	1	4.68574e-06	2.04928e-07
2	1	0	0	0	6.3267	0.217853	0.217689	0.000951694	1	4.78185e-06	2.07173e-07
2	1	0	0	0	6.4267	0.222853	0.22267	0.000942865	1	4.8769e-06	2.09948e-07
2	1	0	0	0	6.5267	0.227853	0.227716	0.000934459	1	4.971e-06	2.12792e-07
2	1	0	0	0	6.6267	0.232853	0.232726	0.000924443	1	5.0642e-06	2.15142e-07
2	1	0	0	0	6.7267	0.237853	0.237666	0.000917162	1	5.15657e-06	2.17978e-07
2	1	0	0	0	6.8267	0.242854	0.242694	0.000907873	1	5.24817e-06	2.20335e-07
2	1	0	0	0	6.9267	0.247854	0.247669	0.000901805	1	5.33907e-06	2.23349e-07
2	1	0	0	0	7.0267	0.252854	0.25266	0.000895658	1	5.4293e-06	2.26297e-07
2	1	0	0	0	7.1267	0.257854	0.257708	0.000889773	1	5.51899e-06	2.29302e-07
2	1	0	0	0	7.2267	0.262854	0.262697	0.000884419	1	5.60811e-06	2.32334e-07
2	1	0	0	0	7.3267	0.267855	0.267694	0.000881557	1	5.69675e-06	2.35987e-07
2	1	0	0	0	7.4267	0.272855	0.272702	0.000876117	1	5.78496e-06	2.38918e-07
2	1	0	0	0	7.5267	0.277855	0.277657	0.000872979	1	5.87276e-06	2.42389e-07
2	1	0	0	0	7.6267	0.282855	0.282737	0.000868701	1	5.96025e-06	2.45614e-07
2	1	0	0	0	7.7267	0.287855	0.28772	0.000867217	1	6.04743e-06	2.49516e-07
2	1	0	0	0	7.8267	0.292856	0.292699	0.000865294	1	6.13434e-06	2.53271e-07
2	1	0	0	0	7.9267	0.297856	0.297735	0.000863701	1	6.22109e-06	2.57154e-07
2	0	0	1	0	8.0153	0.297706	0.297512	0.000746747	1	6.29303e-06	2.22166e-07
2	0	0	1	0	8.1153	0.292706	0.292475	0.000705043	1	6.36522e-06	2.06208e-07
2	0	0	1	0	8.2153	0.287705	0.287518	0.000669233	1	6.43367e-06	1.92416e-07
2	0	0	1	0	8.3153	0.282705	0.282435	0.000643436	1	6.49905e-06	1.81729e-07
2	0	0	1	0	8.4153	0.277705	0.277459	0.000621514	1	6.56193e-06	1.72444e-07
2	0	0	1	0	8.5153	0.272705	0.272498	0.000598697	1	6.62273e-06	1.63144e-07
2	0	0	1	0	8.6153	0.267705	0.267581	0.000584841	1	6.68169e-06	1.56493e-07
2	0	0	1	0	8.7153	0.262704	0.262501	0.000577036	1	6.73965e-06	1.51473e-07
2	0	0	1	0	8.8153	0.257704	0.257518	0.000563655	1	6.79645e-06	1.45151e-07
2	0	0	1	0	8.9153	0.252704	0.252524	0.000551621	1	6.85204e-06	1.39298e-07
2	0	0	1	0	9.0153	0.247704	0.247505	0.000541671	1	6.90658e-06	1.34066e-07
2	0	0	1	0	9.1153	0.242704	0.242552	0.0005326	1	6.9601e-06	1.29183e-07
2	0	0	1	0	9.2153	0.237703	0.237483	0.000522728	1	7.01265e-06	1.24139e-07
2	0	0	1	0	9.3153	0.232703	0.232488	0.000514896	1	7.0643e-06	1.19707e-07
2	0	0	1	0	9.4153	0.227703	0.227507	0.000505451	1	7.11509e-06	1.14993e-07
2	0	0	1	0	9.5153	0.222703	0.222525	0.000498171	1	7.16506e-06	1.10856e-07
2	0	0	1	0	9.6153	0.217703	0.21754	0.000490719	1	7.21423e-06	1.06751e-07
2	0	0	1	0	9.7153	0.212702	0.212468	0.00048339	1	7.26262e-06	1.02705e-07
2	0	0	1	0	9.8153	0.207702	0.207479	0.00047473	1	7.31025e-06	9.84962e-08
2	0	0	1	0	9.9153	0.202702	0.202474	0.000467434	1	7.35714e-06	9.46432e-08
2	0	0	1	0	10.0153	0.197702	0.197536	0.000459517	1	7.4033e-06	9.07711e-08
2	0	0	1	0	10.1153	0.192702	0.192406	0.000451676	1	7.44873e-06	8.69051e-08
2	0	0	1	0	10.2153	0.187701	0.187521	0.000446082	1	7.49342e-06	8.36497e-08
2	0	0	1	0	10.3153	0.182701	0.18247	0.000437356	1	7.53738e-06	7.98045e-08
2	0	0	1	0	10.4153	0.177701	0.177516	0.000430826	1	7.58059e-06	7.64786e-08
2	0	0	1	0	10.5153	0.172701	0.17249	0.000422358	1	7.62307e-06	7.28526e-08
2	0	0	1	0	10.6153	0.167701	0.167509	0.000415096	1	7.66477e-06	6.95322e-08
2	0	0	1	0	10.7153	0.1627	0.1625	0.000407815	1	7.70563e-06	6.62698e-08
2	0	0	1	0	10.8153	0.1577	0.15749	0.000397176	1	7.74566e-06	6.25511e-08
2	0	0	1	0	10.9153	0.1527	0.152488	0.000385862	1	7.78481e-06	5.88393e-08
2	0	0	1	0	11.0153	0.1477	0.147504	0.000378982	1	7.82302e-06	5.59015e-08
2	0	0	0	0	11.1155	0.1427	0.142489	0.000369935	1	7.86034e-06	5.27115e-08
2	0	0	0	0	11.2155	0.137699	0.137425	0.000357425	1	7.89648e-06	4.9119e-08
2	0	0	0	0	11.3155	0.132699	0.132455	0.000344449	1	7.93143e-06	4.56239e-08
2	0	0	0	0	11.4155	0.127699	0.127451	0.000330701	1	7.965e-06	4.21482e-08
2	0	0	0	0	11.5155	0.122699	0.122465	0.000313938	1	7.99704e-06	3.84465e-08
2	0	0	0	0	11.6155	0.117699	0.1175	0.000295884	1	8.02733e-06	3.47662e-08
2	0	0	0	0	11.7155	0.112698	0.112448	0.000272601	1	8.05558e-06	3.06534e-08
2	0	0	0	0	11.8155	0.107698	0.107462	0.000245799	1	8.08141e-06	2.64142e-08
2	0	0	0	0	11.9155	0.102698	0.102509	0.000214305	1	8.10433e-06	2.19682e-08
2	0	0	0	0	12.0155	0.0976978	0.0974886	0.000176459	1	8.12374e-06	1.72028e-08
2	0	0	0	0	12.1155	0.0926976	0.092452	0.000128972	1	8.13888e-06	1.19237e-08
2	0	0	0	0	12.2155	0.0876974	0.0874482	7.182e-05	1	8.14883e-06	6.28053e-09
2	0	0	0	0	12.3155	0.0826972	0.0825239	2.75919e-06	1	8.15242e-06	2.27699e-10
2	0	0	0	0	12.4155	0.077697	0.0775403	-8.08903e-05	1	8.14837e-06	-6.27225e-09
2	0	0	0	0	12.5155	0.0726968	0.0724962	-0.000181764	1	8.1351e-06	-1.31772e-08
2	0	0	0	0	12.6155	0.0676966	0.0674723	-0.000297857	1	8.11124e-06	-2.00971e-08
2	0	0	0	0	12.7155	0.0626964	0.0624992	-0.000425784	1	8.07499e-06	-2.66112e-08
2	0	0	0	0	12.8155	0.0576962	0.0574445	-0.000573247	1	8.0248e-06	-3.29299e-08
2	0	0	0	0	12.9155	0.052696	0.052515	-0.000720002	1	7.96003e-06	-3.78109e-08
2	0	0	0	0	13.0155	0.0476958	0.0474624	-0.000866375	1	7.88036e-06	-4.11202e-08
2	0	0	0	0	13.1155	0.0426956	0.0425148	-0.000996871	1	7.78692e-06	-4.23818e-08
2	0	0	0	0	13.2155	0.0376954	0.0375227	-0.0011091	1	7.68135e-06	-4.16166e-08
2	0	0	0	0	13.3155	0.0326952	0.0325486	-0.00119068	1	7.56607e-06	-3.87548e-08
2	0	0	0	0	13.4155	0.027695	0.0275141	-0.00123827	1	7.44422e-06	-3.40698e-08
2	0	0	0	0	13.5155	0.0226948	0.0224689	-0.00125609	1	7.31903e-06	-2.82231e-08
2	0	0	0	0	13.6155	0.0176946	0.0174789	-0.00124656	1	7.19354e-06	-2.17886e-08
2	0	0	0	0	13.7155	0.0126944	0.0124857	-0.00121376	1	7.07022e-06	-1.51547e-08
2	0	0	0	0	13.8155	0.00769417	0.00749997	-0.00116872	1	6.95082e-06	-8.76539e-09
2	0	0	0	0	13.9155	0.00269396	0.00242728	-0.001114	1	6.83654e-06	-2.70398e-09
2	0	0	0	0	14.0155	-0.00230624	-0.00255319	-0.00105522	1	6.72788e-06	2.69418e-09
2	0	0	0	0	14.1155	-0.00730644	-0.00756652	-0.000996039	1	6.62512e-06	7.53655e-09
2	0	0	0	0	14.2155	-0.0123066	-0.0125544	-0.000941729	1	6.5281e-06	1.18228e-08
2	0	0	0	0	14.3155	-0.0173068	-0.0175529	-0.000889147	1	6.43645e-06	1.56071e-08
2	0	0	0	0	14.4155	-0.0223071	-0.0225164	-0.00084103	1	6.34985e-06	1.8937e-08
2	0	0	0	0	14.5155	-0.0273073	-0.0275255	-0.000796235	1	6.26783e-06	2.19167e-08
2	0	0	0	0	14.6155	-0.0323075	-0.0325367	-0.000755284	1	6.18999e-06	2.45745e-08
2	0	0	0	0	14.7155	-0.0373077	-0.0375405	-0.000721797	1	6.11592e-06	2.70966e-08
2	0	0	0	0	14.8155	-0.0423079	-0.0425411	-0.00068864	1	6.04522e-06	2.92955e-08
2	0	0	0	0	14.9155	-0.0473081	-0.047529	-0.000660593	1	5.97759e-06	3.13973e-08
2	0	0	0	0	15.0155	-0.0523083	-0.0525179	-0.000636372	1	5.91272e-06	3.3421e-08
2	0	0	0	0	15.1155	-0.0573085	-0.0575546	-0.00060968	1	5.85034e-06	3.50899e-08
2	0	0	0	0	15.2155	-0.0623087	-0.0625584	-0.00058949	1	5.79026e-06	3.68776e-08
2	0	0	0	0	15.3155	-0.0673089	-0.067577	-0.000569103	1	5.73224e-06	3.84583e-08
2	0	0	0	0	15.4155	-0.0723091	-0.0725479	-0.000549436	1	5.67615e-06	3.98604e-08
2	0	0	0	0	15.5155	-0.0773093	-0.0775676	-0.000533418	1	5.62178e-06	4.1376e-08
2	0	0	0	0	15.6155	-0.0823095	-0.0825343	-0.000517992	1	5.56902e-06	4.27521e-08
2	0	0	0	0	15.7155	-0.0873097	-0.0875339	-0.000503582	1	5.51776e-06	4.40805e-08
2	0	0	0	0	15.8155	-0.0923099	-0.0925366	-0.000491604	1	5.46785e-06	4.54913e-08
2	0	0	0	0	15.9155	-0.0973101	-0.0975785	-0.00047828	1	5.41924e-06	4.66698e-08
2	0	0	1	0	16.0157	-0.10231	-0.102538	-0.000465952	1	5.37176e-06	4.77777e-08
2	0	0	1	0	16.1157	-0.107311	-0.107493	-0.000447313	1	5.32592e-06	4.8083e-08
2	0	0	1	0	16.2157	-0.112311	-0.112516	-0.000438887	1	5.28151e-06	4.93817e-08
2	0	0	1	0	16.3157	-0.117311	-0.117548	-0.000435198	1	5.23763e-06	5.11566e-08
2	0	0	1	0	16.4157	-0.122311	-0.122534	-0.000428796	1	5.19425e-06	5.2542e-08
2	0	0	1	0	16.5157	-0.127311	-0.127516	-0.000421335	1	5.15162e-06	5.37271e-08
2	0	0	1	0	16.6157	-0.132312	-0.132513	-0.000411309	1	5.10979e-06	5.45037e-08
2	0	0	1	0	16.7157	-0.137312	-0.137522	-0.00040377	1	5.06872e-06	5.55272e-08
2	0	0	1	0	16.8157	-0.142312	-0.142542	-0.000397806	1	5.02839e-06	5.6704e-08
2	0	0	1	0	16.9157	-0.147312	-0.147524	-0.000391924	1	4.98875e-06	5.78183e-08
2	0	0	1	0	17.0157	-0.152312	-0.152548	-0.000385758	1	4.94973e-06	5.88466e-08
2	0	0	1	0	17.1157	-0.157313	-0.157593	-0.000379514	1	4.91129e-06	5.98088e-08
2	0	0	1	0	17.2157	-0.162313	-0.162512	-0.000375299	1	4.87342e-06	6.09907e-08
2	0	0	1	0	17.3157	-0.167313	-0.167547	-0.000369532	1	4.83608e-06	6.19139e-08
2	0	0	1	0	17.4157	-0.172313	-0.172525	-0.000365209	1	4.79921e-06	6.30078e-08
2	0	0	1	0	17.5157	-0.177313	-0.177514	-0.000359742	1	4.76279e-06	6.38593e-08
2	0	0	1	0	17.6157	-0.182314	-0.182591	-0.000356501	1	4.72677e-06	6.50939e-08
2	0	0	1	0	17.7157	-0.187314	-0.187551	-0.000352689	1	4.69114e-06	6.61473e-08
2	0	0	1	0	17.8157	-0.192314	-0.192567	-0.000351605	1	4.65585e-06	6.77074e-08
2	0	0	1	0	17.9157	-0.197314	-0.197527	-0.000345535	1	4.62085e-06	6.82526e-08
2	1	0	0	1	18.0051	-0.198214	-0.198415	-0.000239435	1	4.59338e-06	4.75076e-08
2	1	0	0	1	18.1051	-0.193214	-0.193414	-0.000215942	1	4.571e-06	4.17661e-08
2	1	0	0	1	18.2051	-0.188214	-0.18843	-0.000198866	1	4.55046e-06	3.74724e-08
2	1	0	0	1	18.3051	-0.183214	-0.183377	-0.000188344	1	4.53125e-06	3.45378e-08
2	1	0	0	1	18.4051	-0.178213	-0.17841	-0.000179452	1	4.51313e-06	3.20159e-08
2	1	0	0	1	18.5051	-0.173213	-0.173404	-0.000169417	1	4.49596e-06	2.93775e-08
2	1	0	0	1	18.6051	-0.168213	-0.168385	-0.000160926	1	4.47961e-06	2.70975e-08
2	1	0	0	1	18.7051	-0.163213	-0.16343	-0.000153862	1	4.46402e-06	2.51457e-08
2	1	0	0	1	18.8051	-0.158213	-0.158365	-0.00014866	1	4.44913e-06	2.35425e-08
2	1	0	0	1	18.9051	-0.153212	-0.1534	-0.00014214	1	4.4349e-06	2.18044e-08
2	1	0	0	1	19.0051	-0.148212	-0.148336	-0.000135004	1	4.42124e-06	2.0026e-08
2	1	0	0	1	19.1051	-0.143212	-0.143413	-0.000132047	1	4.40809e-06	1.89372e-08
2	1	0	0	1	19.2051	-0.138212	-0.138447	-0.000125388	1	4.39536e-06	1.73596e-08
2	1	0	0	1	19.3051	-0.133212	-0.133412	-0.000119415	1	4.38349e-06	1.59314e-08
2	1	0	0	1	19.4051	-0.128211	-0.128464	-0.000115381	1	4.37193e-06	1.48223e-08
2	1	0	0	1	19.5051	-0.123211	-0.123383	-0.000110628	1	4.3608e-06	1.36496e-08
2	1	0	0	1	19.6051	-0.118211	-0.11841	-0.000106475	1	4.35009e-06	1.26077e-08
2	1	0	0	1	19.7051	-0.113211	-0.113401	-0.000102854	1	4.33983e-06	1.16637e-08
2	1	0	0	1	19.8051	-0.108211	-0.108415	-9.78318e-05	1	4.32993e-06	1.06064e-08
2	1	0	0	1	19.9051	-0.10321	-0.1034	-9.55566e-05	1	4.32044e-06	9.88053e-09
2	1	0	1	1	20.0053	-0.0982101	-0.098398	-9.32727e-05	2	4.31127e-06	9.17785e-09
2	1	0	1	1	20.1053	-0.09321	-0.0934409	-8.80654e-05	2	4.30248e-06	8.2289e-09
2	1	0	1	1	20.2053	-0.0882097	-0.0884381	-8.51013e-05	2	4.29405e-06	7.5262e-09
2	1	0	1	1	20.3053	-0.0832095	-0.0833898	-8.14184e-05	2	4.28593e-06	6.78947e-09
2	1	0	1	1	20.4053	-0.0782093	-0.0784443	-7.79174e-05	2	4.27814e-06	6.11218e-09
2	1	0	1	1	20.5053	-0.0732091	-0.0734024	-7.44994e-05	2	4.27068e-06	5.46844e-09
2	1	0	1	1	20.6053	-0.0682089	-0.0684209	-7.32736e-05	2	4.26353e-06	5.01344e-09
2	1	0	1	1	20.7053	-0.0632087	-0.0633768	-6.8764e-05	2	4.25671e-06	4.35804e-09
2	1	0	1	1	20.8053	-0.0582085	-0.0583772	-6.56675e-05	2	4.2502e-06	3.83349e-09
2	1	0	1	1	20.9053	-0.0532083	-0.0533724	-6.24456e-05	2	4.24403e-06	3.33287e-09
2	1	0	1	1	21.0053	-0.0482081	-0.0484311	-5.74131e-05	2	4.23823e-06	2.78058e-09
2	1	0	1	1	21.1053	-0.0432079	-0.0434231	-5.40375e-05	2	4.23278e-06	2.34648e-09
2	1	0	1	1	21.2053	-0.0382077	-0.0383716	-5.14109e-05	2	4.22773e-06	1.97272e-09
2	1	0	1	1	21.3053	-0.0332075	-0.0334134	-4.57743e-05	2	4.22311e-06	1.52948e-09
2	1	0	1	1	21.4053	-0.0282073	-0.028433	-3.99611e-05	2	4.219e-06	1.13621e-09
2	1	0	1	1	21.5053	-0.0232071	-0.0234111	-3.42786e-05	2	4.21551e-06	8.02501e-10
2	1	0	1	1	21.6053	-0.0182069	-0.0183756	-2.5867e-05	2	4.2127e-06	4.75321e-10
2	1	0	1	1	21.7053	-0.0132067	-0.0134195	-1.71446e-05	2	4.21074e-06	2.30071e-10
2	1	0	1	1	21.8053	-0.00820648	-0.00846232	-5.56231e-06	2	4.20987e-06	4.707e-11
2	1	0	1	1	21.9053	-0.00320627	-0.00343309	1.05755e-05	2	4.21034e-06	-3.63066e-11
2	1	0	1	1	22.0053	0.00179393	0.00158872	2.92516e-05	2	4.21261e-06	4.64726e-11
2	1	0	1	1	22.1053	0.00679413	0.00664445	5.50745e-05	2	4.21707e-06	3.6594e-10
2	1	0	1	1	22.2053	0.0117943	0.011609	8.8984e-05	2	4.22438e-06	1.03302e-09
2	1	0	1	1	22.3053	0.0167945	0.0166308	0.00013012	2	4.23537e-06	2.164e-09
2	1	0	1	1	22.4053	0.0217947	0.0215911	0.000180595	2	4.25101e-06	3.89924e-09
2	1	0	1	1	22.5053	0.0267949	0.0266002	0.000246713	2	4.27249e-06	6.56261e-09
2	1	0	1	1	22.6053	0.0317951	0.0315722	0.000326045	2	4.30115e-06	1.0294e-08
2	1	0	1	1	22.7053	0.0367953	0.0365824	0.000418903	2	4.33848e-06	1.53244e-08
2	1	0	1	1	22.8053	0.0417955	0.0416466	0.000527817	2	4.38602e-06	2.19818e-08
2	1	0	1	1	22.9053	0.0467957	0.0465878	0.000651185	2	4.44518e-06	3.03373e-08
2	1	0	1	1	23.0053	0.0517959	0.0516732	0.000786373	2	4.51717e-06	4.06344e-08
2	1	0	1	1	23.1053	0.0567961	0.0566102	0.000922075	2	4.60271e-06	5.21989e-08
2	1	0	1	1	23.2053	0.0617963	0.0616416	0.00105596	2	4.70181e-06	6.50913e-08
2	1	0	1	1	23.3053	0.0667965	0.0665902	0.00117941	2	4.81393e-06	7.8537e-08
2	1	0	1	1	23.4053	0.0717967	0.0716386	0.0012885	2	4.93773e-06	9.23062e-08
2	1	0	1	1	23.5053	0.0767969	0.0766264	0.00137528	2	5.07127e-06	1.05383e-07
2	1	0	1	1	23.6053	0.0817971	0.0816864	0.00143668	2	5.2123e-06	1.17357e-07
2	1	0	1	1	23.7053	0.0867973	0.0866351	0.00147361	2	5.35829e-06	1.27667e-07
2	1	0	1	1	23.8053	0.0917976	0.0916155	0.00148972	2	5.50691e-06	1.36482e-07
2	1	0	1	1	23.9053	0.0967978	0.0965992	0.00148709	2	5.65601e-06	1.43651e-07
2	1	0	1	1	24.0053	0.101798	0.10164	0.00146704	2	5.8039e-06	1.4911e-07
2	1	0	1	1	24.1053	0.106798	0.106574	0.00143544	2	5.94928e-06	1.52981e-07
2	1	0	1	1	24.2053	0.111798	0.111595	0.00140007	2	6.09128e-06	1.5624e-07
2	1	0	1	1	24.3053	0.116799	0.116649	0.00135806	2	6.22941e-06	1.58417e-07
2	1	0	1	1	24.4053	0.121799	0.121604	0.00131615	2	6.36332e-06	1.6005e-07
2	1	0	1	1	24.5053	0.126799	0.126636	0.00127362	2	6.49295e-06	1.61286e-07
2	1	0	1	1	24.6053	0.131799	0.131603	0.00123249	2	6.61841e-06	1.622e-07
2	1	0	1	1	24.7053	0.136799	0.136614	0.00119134	2	6.73979e-06	1.62753e-07
2	1	0	1	1	24.8053	0.1418	0.141591	0.00115396	2	6.85732e-06	1.6339e-07
2	1	0	1	1	24.9053	0.1468	0.146614	0.00111978	2	6.97122e-06	1.64176e-07
2	1	0	0	1	25.0055	0.1518	0.151627	0.00108775	2	7.08194e-06	1.64932e-07
2	1	0	0	1	25.1055	0.1568	0.156639	0.00105724	2	7.18934e-06	1.65606e-07
2	1	0	0	1	25.2055	0.1618	0.161609	0.00102892	2	7.2938e-06	1.66282e-07
2	1	0	0	1	25.3055	0.166801	0.166602	0.00100184	2	7.39557e-06	1.66909e-07
2	1	0	0	1	25.4055	0.171801	0.171646	0.000979875	2	7.49483e-06	1.68192e-07
2	1	0	0	1	25.5055	0.176801	0.17661	0.000957786	2	7.59177e-06	1.69154e-07
2	1	0	0	1	25.6055	0.181801	0.181655	0.000935635	2	7.68657e-06	1.69963e-07
2	1	0	0	1	25.7055	0.186801	0.186616	0.000915892	2	7.77938e-06	1.70921e-07
2	1	0	0	1	25.8055	0.191802	0.191662	0.000899225	2	7.87036e-06	1.72347e-07
2	1	0	0	1	25.9055	0.196802	0.196581	0.000882675	2	7.95965e-06	1.73517e-07
2	1	0	0	1	26.0055	0.201802	0.201572	0.000866942	2	8.04737e-06	1.74751e-07
2	1	0	0	1	26.1055	0.206802	0.206602	0.000854123	2	8.13367e-06	1.76463e-07
2	1	0	0	1	26.2055	0.211802	0.2116	0.000839918	2	8.21862e-06	1.77727e-07
2	1	0	0	1	26.3055	0.216803	0.216636	0.000830324	2	8.30234e-06	1.79878e-07
2	1	0	0	1	26.4055	0.221803	0.221665	0.000818431	2	8.38491e-06	1.81418e-07
2	1	0	0	1	26.5055	0.226803	0.226585	0.000808352	2	8.4664e-06	1.83161e-07
2	1	0	0	1	26.6055	0.231803	0.231619	0.000798316	2	8.54692e-06	1.84905e-07
2	1	0	0	1	26.7055	0.236803	0.236662	0.000789482	2	8.62648e-06	1.8684e-07
2	1	0	0	1	26.8055	0.241804	0.241671	0.000780818	2	8.70519e-06	1.88701e-07
2	1	0	0	1	26.9055	0.246804	0.246617	0.000772823	2	8.78312e-06	1.90592e-07
2	1	0	0	1	27.0055	0.251804	0.251639	0.000766815	2	8.86033e-06	1.92961e-07
2	1	0	0	1	27.1055	0.256804	0.256698	0.00076117	2	8.93691e-06	1.95391e-07
2	1	0	0	1	27.2055	0.261804	0.26165	0.000755196	2	9.01289e-06	1.97597e-07
2	1	0	0	1	27.3055	0.266805	0.266649	0.000750301	2	9.08835e-06	2.00068e-07
2	1	0	0	1	27.4055	0.271805	0.271601	0.000746115	2	9.16336e-06	2.02646e-07
2	1	0	0	1	27.5055	0.276805	0.276676	0.000742425	2	9.23799e-06	2.05411e-07
2	1	0	0	1	27.6055	0.281805	0.281627	0.000739002	2	9.31231e-06	2.08123e-07
2	1	0	0	1	27.7055	0.286805	0.286642	0.000738064	2	9.38637e-06	2.1156e-07
2	1	0	0	1	27.8055	0.291806	0.291654	0.000735637	2	9.46026e-06	2.14551e-07
2	1	0	0	1	27.9055	0.296806	0.296661	0.000734271	2	9.53402e-06	2.17829e-07
2	0	0	0	1	27.9951	0.298706	0.298515	0.000631485	2	9.59753e-06	1.88507e-07
2	0	0	0	1	28.0951	0.293706	0.293536	0.000593202	2	9.65839e-06	1.74126e-07
2	0	0	0	1	28.1951	0.288705	0.288512	0.000568108	2	9.71633e-06	1.63906e-07
2	0	0	0	1	28.2951	0.283705	0.283528	0.000551025	2	9.77214e-06	1.56231e-07
2	0	0	0	1	28.3951	0.278705	0.278464	0.000534291	2	9.82622e-06	1.4878e-07
2	0	0	0	1	28.4951	0.273705	0.273505	0.000521301	2	9.87883e-06	1.42578e-07
2	0	0	0	1	28.5951	0.268705	0.268554	0.000508664	2	9.93014e-06	1.36604e-07
2	0	0	0	1	28.6951	0.263704	0.263502	0.000497285	2	9.98029e-06	1.31035e-07
2	0	0	0	1	28.7951	0.258704	0.258497	0.000487778	2	1.00294e-05	1.26089e-07
2	0	0	0	1	28.8951	0.253704	0.253475	0.000478223	2	1.00775e-05	1.21218e-07
2	0	0	0	1	28.9951	0.248704	0.248444	0.000469342	2	1.01248e-05	1.16605e-07
2	0	0	0	1	29.0951	0.243704	0.243494	0.000461819	2	1.01712e-05	1.1245e-07
2	0	0	0	1	29.1951	0.238703	0.238478	0.000452537	2	1.02168e-05	1.0792e-07
2	0	0	0	1	29.2951	0.233703	0.233445	0.000446337	2	1.02616e-05	1.04195e-07
2	0	0	0	1	29.3951	0.228703	0.228461	0.000438723	2	1.03057e-05	1.00231e-07
2	0	0	0	1	29.4951	0.223703	0.223461	0.000431557	2	1.03492e-05	9.64362e-08
2	0	0	0	1	29.5951	0.218703	0.218494	0.000424907	2	1.03919e-05	9.28397e-08
2	0	0	0	1	29.6951	0.213702	0.213523	0.000419517	2	1.0434e-05	8.95768e-08
2	0	0	0	1	29.7951	0.208702	0.208491	0.000411694	2	1.04755e-05	8.58345e-08
2	0	0	0	1	29.8951	0.203702	0.203482	0.00040472	2	1.05162e-05	8.23533e-08
2	0	0	0	1	29.9951	0.198702	0.198484	0.000400151	2	1.05564e-05	7.94233e-08
2	0	0	0	1	30.0951	0.193702	0.193482	0.00039299	2	1.05959e-05	7.60363e-08
2	0	0	0	1	30.1951	0.188701	0.188526	0.000386735	2	1.06347e-05	7.29095e-08
2	0	0	0	1	30.2951	0.183701	0.18347	0.000380342	2	1.06729e-05	6.97814e-08
2	0	0	0	1	30.3951	0.178701	0.17853	0.000374114	2	1.07105e-05	6.67905e-08
2	0	0	0	1	30.4951	0.173701	0.173479	0.000367241	2	1.07474e-05	6.37087e-08
2	0	0	0	1	30.5951	0.168701	0.16849	0.000359741	2	1.07835e-05	6.06129e-08
2	0	0	0	1	30.6951	0.1637	0.163504	0.00035226	2	1.0819e-05	5.75958e-08
2	0	0	0	1	30.7951	0.1587	0.158506	0.000345631	2	1.08537e-05	5.47846e-08
2	0	0	0	1	30.8951	0.1537	0.153473	0.000336774	2	1.08876e-05	5.16856e-08
2	0	0	0	1	30.9951	0.1487	0.148439	0.000328023	2	1.09207e-05	4.86915e-08
2	0	0	1	1	31.0953	0.1437	0.143448	0.000318024	2	1.09529e-05	4.56199e-08
2	0	0	1	1	31.1953	0.138699	0.138541	0.000309082	2	1.09841e-05	4.28205e-08
2	0	0	1	1	31.2953	0.133699	0.133413	0.000296967	2	1.10143e-05	3.96192e-08
2	0	0	1	1	31.3953	0.128699	0.128445	0.000283795	2	1.10432e-05	3.64521e-08
2	0	0	1	1	31.4953	0.123699	0.123472	0.000269976	2	1.10707e-05	3.33345e-08
2	0	0	1	1	31.5953	0.118699	0.118431	0.000253444	2	1.10967e-05	3.00158e-08
2	0	0	1	1	31.6953	0.113698	0.113465	0.000233493	2	1.11208e-05	2.64932e-08
2	0	0	1	1	31.7953	0.108698	0.108449	0.000208262	2	1.11428e-05	2.25858e-08
2	0	0	1	1	31.8953	0.103698	0.103439	0.000180734	2	1.11621e-05	1.8695e-08
2	0	0	1	1	31.9953	0.0986978	0.0984343	0.000146138	2	1.11782e-05	1.43849e-08
2	0	0	1	1	32.0953	0.0936976	0.0934792	0.000102698	2	1.11906e-05	9.60016e-09
2	0	0	1	1	32.1953	0.0886974	0.0884903	4.98548e-05	2	1.11982e-05	4.41167e-09
2	0	0	1	1	32.2953	0.0836972	0.0834558	-1.29529e-05	2	1.12001e-05	-1.08099e-09
2	0	0	1	1	32.3953	0.078697	0.0784573	-8.83074e-05	2	1.1195e-05	-6.92835e-09
2	0	0	1	1	32.4953	0.0736968	0.0735171	-0.000179717	2	1.11816e-05	-1.32122e-08
2	0	0	1	1	32.5953	0.0686966	0.0685176	-0.000286502	2	1.11583e-05	-1.96304e-08
2	0	0	1	1	32.6953	0.0636964	0.0635085	-0.000407296	2	1.11235e-05	-2.58667e-08
2	0	0	1	1	32.7953	0.0586962	0.0585132	-0.000540425	2	1.1076e-05	-3.1622e-08
2	0	0	1	1	32.8953	0.053696	0.0534638	-0.000683214	2	1.10145e-05	-3.65272e-08
2	0	0	1	1	32.9953	0.0486958	0.04853	-0.000830111	2	1.09387e-05	-4.02852e-08
2	0	0	1	1	33.0953	0.0436956	0.0434711	-0.000964585	2	1.08487e-05	-4.19315e-08
2	0	0	1	1	33.1953	0.0386954	0.0384567	-0.00108382	2	1.0746e-05	-4.168e-08
2	0	0	1	1	33.2953	0.0336952	0.0334433	-0.00117682	2	1.06325e-05	-3.93569e-08
2	0	0	1	1	33.3953	0.028695	0.0285095	-0.00124207	2	1.0511e-05	-3.54108e-08
2	0	0	1	1	33.4953	0.0236948	0.0234909	-0.00127538	2	1.03847e-05	-2.99599e-08
2	0	0	1	1	33.5953	0.0186946	0.0185422	-0.00127864	2	1.02566e-05	-2.37088e-08
2	0	0	1	1	33.6953	0.0136944	0.0135236	-0.00125894	2	1.01293e-05	-1.70254e-08
2	0	0	1	1	33.7953	0.00869421	0.00845515	-0.00122046	2	1.0005e-05	-1.03192e-08
2	0	0	1	1	33.8953	0.003694	0.00345984	-0.00117298	2	9.88506e-06	-4.05832e-09
2	0	0	1	1	33.9953	-0.0013062	-0.00159483	-0.00111859	2	9.77037e-06	1.78396e-09
2	0	0	1	1	34.0953	-0.0063064	-0.00652017	-0.00106077	2	9.66131e-06	6.91643e-09
2	0	0	1	1	34.1953	-0.0113066	-0.0115685	-0.0010046	2	9.55795e-06	1.16218e-08
2	0	0	1	1	34.2953	-0.0163068	-0.0165352	-0.000951028	2	9.46003e-06	1.57254e-08
2	0	0	1	1	34.3953	-0.021307	-0.0215167	-0.000901775	2	9.36727e-06	1.94032e-08
2	0	0	1	1	34.4953	-0.0263072	-0.0265025	-0.000857688	2	9.27923e-06	2.27308e-08
2	0	0	1	1	34.5953	-0.0313074	-0.031572	-0.000816877	2	9.19551e-06	2.57904e-08
2	0	0	1	1	34.6953	-0.0363076	-0.0365344	-0.000777497	2	9.11571e-06	2.84054e-08
2	0	0	1	1	34.7953	-0.0413078	-0.0415382	-0.00074506	2	9.03944e-06	3.09485e-08
2	0	0	1	1	34.8953	-0.046308	-0.0465134	-0.000713311	2	8.96639e-06	3.31785e-08
2	0	0	1	1	34.9953	-0.0513082	-0.0515193	-0.000686914	2	8.89623e-06	3.53893e-08
2	0	0	1	1	35.0953	-0.0563084	-0.0565559	-0.000662141	2	8.82866e-06	3.7448e-08
2	0	0	1	1	35.1953	-0.0613086	-0.0615682	-0.000638672	2	8.7635e-06	3.93219e-08
2	0	0	1	1	35.2953	-0.0663089	-0.0666176	-0.00061808	2	8.70052e-06	4.1175e-08
2	0	0	1	1	35.3953	-0.071309	-0.0715429	-0.000599479	2	8.63954e-06	4.28885e-08
2	0	0	1	1	35.4953	-0.0763093	-0.0765658	-0.000581711	2	8.58041e-06	4.45392e-08
2	0	0	1	1	35.5953	-0.0813095	-0.0815749	-0.000564971	2	8.52295e-06	4.60875e-08
2	0	0	1	1	35.6953	-0.0863097	-0.0865447	-0.000549854	2	8.46707e-06	4.7587e-08
2	0	0	1	1	35.7953	-0.0913099	-0.0915528	-0.000536891	2	8.41266e-06	4.91539e-08
2	0	0	1	1	35.8953	-0.0963101	-0.0965545	-0.000522041	2	8.35959e-06	5.04053e-08
2	0	0	0	1	35.9955	-0.10131	-0.101537	-0.000510167	2	8.30769e-06	5.18008e-08
2	0	0	0	1	36.0955	-0.10631	-0.106562	-0.000498721	2	8.25706e-06	5.31447e-08
2	0	0	0	1	36.1955	-0.111311	-0.11152	-0.000488829	2	8.20752e-06	5.45143e-08
2	0	0	0	1	36.2955	-0.116311	-0.116555	-0.000479709	2	8.159e-06	5.59124e-08
2	0	0	0	1	36.3955	-0.121311	-0.121546	-0.000469444	2	8.11145e-06	5.7059e-08
2	0	0	0	1	36.4955	-0.126311	-0.126545	-0.000459904	2	8.06481e-06	5.81987e-08
2	0	0	0	1	36.5955	-0.131311	-0.131511	-0.000452561	2	8.01902e-06	5.95168e-08
2	0	0	0	1	36.6955	-0.136312	-0.136488	-0.000443083	2	7.97405e-06	6.04756e-08
2	0	0	0	1	36.7955	-0.141312	-0.141531	-0.000436054	2	7.92986e-06	6.17153e-08
2	0	0	0	1	36.8955	-0.146312	-0.146499	-0.000430232	2	7.88641e-06	6.30286e-08
2	0	0	0	1	36.9955	-0.151312	-0.151512	-0.000420777	2	7.84365e-06	6.37529e-08
2	0	0	0	1	37.0955	-0.156313	-0.156552	-0.000418	2	7.80152e-06	6.54388e-08
2	0	0	0	1	37.1955	-0.161313	-0.161548	-0.000410219	2	7.76002e-06	6.62699e-08
2	0	0	0	1	37.2955	-0.166313	-0.166525	-0.000405347	2	7.7191e-06	6.75004e-08
2	0	0	0	1	37.3955	-0.171313	-0.171559	-0.000399937	2	7.67871e-06	6.86129e-08
2	0	0	0	1	37.4955	-0.176313	-0.17655	-0.000394908	2	7.6388e-06	6.97211e-08
2	0	0	0	1	37.5955	-0.181314	-0.181575	-0.000391214	2	7.59937e-06	7.10349e-08
2	0	0	0	1	37.6955	-0.186314	-0.186519	-0.000385281	2	7.56035e-06	7.18621e-08
2	0	0	0	1	37.7955	-0.191314	-0.191597	-0.000383968	2	7.52171e-06	7.35671e-08
2	0	0	0	1	37.8955	-0.196314	-0.196548	-0.000378191	2	7.48341e-06	7.43324e-08
2	1	0	1	0	37.9849	-0.199214	-0.199383	-0.000279108	2	7.45095e-06	5.56495e-08
2	1	0	1	0	38.0849	-0.194214	-0.194446	-0.000249332	2	7.42506e-06	4.84817e-08
2	1	0	1	0	38.1849	-0.189214	-0.18947	-0.000233479	2	7.40126e-06	4.42372e-08
2	1	0	1	0	38.2849	-0.184214	-0.184424	-0.000221179	2	7.37886e-06	4.07907e-08
2	1	0	1	0	38.3849	-0.179213	-0.179424	-0.000209433	2	7.35759e-06	3.75773e-08
2	1	0	1	0	38.4849	-0.174213	-0.174475	-0.000200212	2	7.33729e-06	3.49319e-08
2	1	0	1	0	38.5849	-0.169213	-0.169441	-0.000192677	2	7.31786e-06	3.26474e-08
2	1	0	1	0	38.6849	-0.164213	-0.164415	-0.000185111	2	7.29923e-06	3.04351e-08
2	1	0	1	0	38.7849	-0.159213	-0.159405	-0.000178902	2	7.28131e-06	2.85179e-08
2	1	0	1	0	38.8849	-0.154212	-0.154445	-0.000172162	2	7.26408e-06	2.65895e-08
2	1	0	1	0	38.9849	-0.149212	-0.149428	-0.000165787	2	7.24746e-06	2.47732e-08
2	1	0	1	0	39.0849	-0.144212	-0.144405	-0.000161072	2	7.23143e-06	2.32597e-08
2	1	0	1	0	39.1849	-0.139212	-0.139385	-0.000155273	2	7.21597e-06	2.16427e-08
2	1	0	1	0	39.2849	-0.134212	-0.13443	-0.000149244	2	7.20104e-06	2.00629e-08
2	1	0	1	0	39.3849	-0.129211	-0.129426	-0.000144032	2	7.18662e-06	1.86414e-08
2	1	0	1	0	39.4849	-0.124211	-0.124426	-0.000140598	2	7.1727e-06	1.74941e-08
2	1	0	1	0	39.5849	-0.119211	-0.119433	-0.000135832	2	7.15923e-06	1.62229e-08
2	1	0	1	0	39.6849	-0.114211	-0.114369	-0.000131485	2	7.14623e-06	1.50378e-08
2	1	0	1	0	39.7849	-0.109211	-0.10942	-0.000126949	2	7.13364e-06	1.38908e-08
2	1	0	1	0	39.8849	-0.10421	-0.104391	-0.000123014	2	7.12146e-06	1.28415e-08
2	1	0	1	0	39.9849	-0.0992102	-0.0994125	-0.000116847	3	7.10967e-06	1.16161e-08
2	1	0	0	0	40.0851	-0.09421	-0.0943695	-0.000115225	3	7.09822e-06	1.08738e-08
2	1	0	0	0	40.1851	-0.0892098	-0.0893636	-0.000111951	3	7.08717e-06	1.00043e-08
2	1	0	0	0	40.2851	-0.0842096	-0.0844415	-0.000106915	3	7.07648e-06	9.02802e-09
2	1	0	0	0	40.3851	-0.0792094	-0.0794303	-0.000103458	3	7.06612e-06	8.21767e-09
2	1	0	0	0	40.4851	-0.0742092	-0.0744381	-0.000101596	3	7.05611e-06	7.56261e-09
2	1	0	0	0	40.5851	-0.069209	-0.069411	-9.79589e-05	3	7.04645e-06	6.79943e-09
2	1	0	0	0	40.6851	-0.0642088	-0.0644041	-9.31773e-05	3	7.03712e-06	6.001e-09
2	1	0	0	0	40.7851	-0.0592086	-0.0594193	-8.97682e-05	3	7.02814e-06	5.33397e-09
2	1	0	0	0	40.8851	-0.0542084	-0.0543954	-8.64862e-05	3	7.01951e-06	4.70445e-09
2	1	0	0	0	40.9851	-0.0492081	-0.0493789	-8.4605e-05	3	7.01129e-06	4.1777e-09
2	1	0	0	0	41.0851	-0.0442079	-0.044408	-7.88306e-05	3	7.00342e-06	3.50071e-09
2	1	0	0	0	41.1851	-0.0392077	-0.0394074	-7.25794e-05	3	6.99598e-06	2.86016e-09
2	1	0	0	0	41.2851	-0.0342075	-0.0344078	-7.02248e-05	3	6.989e-06	2.41628e-09
2	1	0	0	0	41.3851	-0.0292073	-0.0293786	-6.49927e-05	3	6.98256e-06	1.90939e-09
2	1	0	0	0	41.4851	-0.0242071	-0.0243928	-5.71746e-05	3	6.97673e-06	1.39465e-09
2	1	0	0	0	41.5851	-0.0192069	-0.019389	-4.89768e-05	3	6.97162e-06	9.49612e-10
2	1	0	0	0	41.6851	-0.0142067	-0.0144298	-4.09132e-05	3	6.96737e-06	5.90368e-10
2	1	0	0	0	41.7851	-0.00920652	-0.00944082	-2.9686e-05	3	6.96419e-06	2.8026e-10
2	1	0	0	0	41.8851	-0.00420631	-0.00441159	-1.32567e-05	3	6.96234e-06	5.84832e-11
2	1	0	0	0	41.9851	0.000793888	0.000653691	7.0215e-06	3	6.96223e-06	4.58989e-12
2	1	0	0	0	42.0851	0.00579409	0.00561401	2.91138e-05	3	6.96424e-06	1.63445e-10
2	1	0	0	0	42.1851	0.0107943	0.0105839	6.09036e-05	3	6.96895e-06	6.44596e-10
2	1	0	0	0	42.2851	0.0157945	0.0156502	9.97626e-05	3	6.97713e-06	1.56131e-09
2	1	0	0	0	42.3851	0.0207947	0.0206625	0.000149036	3	6.98967e-06	3.07946e-09
2	1	0	0	0	42.4851	0.0257949	0.0256429	0.000208037	3	7.00765e-06	5.33469e-09
2	1	0	0	0	42.5851	0.0307951	0.0306033	0.00028176	3	7.03231e-06	8.62276e-09
2	1	0	0	0	42.6851	0.0357953	0.0356399	0.000369576	3	7.06503e-06	1.31717e-08
2	1	0	0	0	42.7851	0.0407955	0.040631	0.00047111	3	7.10725e-06	1.91417e-08
2	1	0	0	0	42.8851	0.0457957	0.0456379	0.000586465	3	7.16032e-06	2.6765e-08
2	1	0	0	0	42.9851	0.0507959	0.0506693	0.000714965	3	7.22544e-06	3.62268e-08
2	1	0	0	0	43.0851	0.0557961	0.0555957	0.000842684	3	7.30347e-06	4.68496e-08
2	1	0	0	0	43.1851	0.0607963	0.060661	0.000974987	3	7.39458e-06	5.91437e-08
2	1	0	0	0	43.2851	0.0657965	0.0656033	0.0010954	3	7.49846e-06	7.18617e-08
2	1	0	0	0	43.3851	0.0707967	0.0706526	0.00120755	3	7.6141e-06	8.53165e-08
2	1	0	0	0	43.4851	0.0757969	0.0756808	0.00130025	3	7.73988e-06	9.84043e-08
2	1	0	0	0	43.5851	0.0807971	0.0806263	0.00136997	3	7.8738e-06	1.10456e-07
2	1	0	0	0	43.6851	0.0857973	0.0855951	0.00141551	3	8.01351e-06	1.21161e-07
2	1	0	0	0	43.7851	0.0907975	0.0906455	0.00144018	3	8.15673e-06	1.30546e-07
2	1	0	0	0	43.8851	0.0957977	0.0956387	0.00144373	3	8.30131e-06	1.38077e-07
2	1	0	0	0	43.9851	0.100798	0.100663	0.00143083	3	8.44546e-06	1.44031e-07
2	1	0	0	0	44.0851	0.105798	0.105596	0.00140698	3	8.58775e-06	1.48572e-07
2	1	0	0	0	44.1851	0.110798	0.110654	0.00137479	3	8.72718e-06	1.52127e-07
2	1	0	0	0	44.2851	0.115798	0.115554	0.00133753	3	8.86307e-06	1.54558e-07
2	1	0	0	0	44.3851	0.120799	0.120584	0.00129651	3	8.99502e-06	1.56339e-07
2	1	0	0	0	44.4851	0.125799	0.125632	0.00125411	3	9.12286e-06	1.57557e-07
2	1	0	0	0	44.5851	0.130799	0.130567	0.00121414	3	9.2466e-06	1.58527e-07
2	1	0	0	0	44.6851	0.135799	0.135594	0.00117465	3	9.36632e-06	1.59275e-07
2	1	0	0	0	44.7851	0.1408	0.140654	0.00113769	3	9.48217e-06	1.6002e-07
2	1	0	0	0	44.8851	0.1458	0.145633	0.00110149	3	9.59438e-06	1.60414e-07
2	1	0	1	0	44.9853	0.1508	0.150597	0.00106725	3	9.70335e-06	1.60724e-07
2	1	0	1	0	45.0853	0.1558	0.155618	0.00103871	3	9.80897e-06	1.61642e-07
2	1	0	1	0	45.1853	0.1608	0.160617	0.0010109	3	9.91159e-06	1.62368e-07
2	1	0	1	0	45.2853	0.165801	0.165625	0.000983132	3	1.00115e-05	1.62831e-07
2	1	0	1	0	45.3853	0.170801	0.1706	0.000958401	3	1.01088e-05	1.63503e-07
2	1	0	1	0	45.4853	0.175801	0.175638	0.000935992	3	1.02037e-05	1.64396e-07
2	1	0	1	0	45.5853	0.180801	0.180671	0.000914384	3	1.02965e-05	1.65203e-07
2	1	0	1	0	45.6853	0.185801	0.185624	0.000894	3	1.03872e-05	1.65948e-07
2	1	0	1	0	45.7853	0.190802	0.190604	0.000876493	3	1.0476e-05	1.67063e-07
2	1	0	1	0	45.8853	0.195802	0.195651	0.000860968	3	1.0563e-05	1.68449e-07
2	1	0	1	0	45.9853	0.200802	0.200673	0.000843611	3	1.06484e-05	1.6929e-07
2	1	0	1	0	46.0853	0.205802	0.205675	0.000829362	3	1.07324e-05	1.70579e-07
2	1	0	1	0	46.1853	0.210802	0.210627	0.000816207	3	1.08149e-05	1.71916e-07
2	1	0	1	0	46.2853	0.215803	0.215645	0.000804367	3	1.08962e-05	1.73458e-07
2	1	0	1	0	46.3853	0.220803	0.220629	0.000792789	3	1.09762e-05	1.74913e-07
2	1	0	1	0	46.4853	0.225803	0.225677	0.000780922	3	1.10551e-05	1.76236e-07
2	1	0	1	0	46.5853	0.230803	0.230603	0.000771067	3	1.11329e-05	1.77811e-07
2	1	0	1	0	46.6853	0.235803	0.23563	0.000760562	3	1.12097e-05	1.79212e-07
2	1	0	1	0	46.7853	0.240804	0.240672	0.000752066	3	1.12856e-05	1.81001e-07
2	1	0	1	0	46.8853	0.245804	0.24562	0.000744064	3	1.13606e-05	1.82757e-07
2	1	0	1	0	46.9853	0.250804	0.250578	0.00073514	3	1.14348e-05	1.8421e-07
2	1	0	1	0	47.0853	0.255804	0.255629	0.00072953	3	1.15083e-05	1.86489e-07
2	1	0	1	0	47.1853	0.260804	0.260649	0.000721937	3	1.15811e-05	1.88172e-07
2	1	0	1	0	47.2853	0.265805	0.26559	0.000716869	3	1.16532e-05	1.90393e-07
2	1	0	1	0	47.3853	0.270805	0.270639	0.000711056	3	1.17248e-05	1.92439e-07
2	1	0	1	0	47.4853	0.275805	0.27563	0.000707512	3	1.1796e-05	1.95011e-07
2	1	0	1	0	47.5853	0.280805	0.280644	0.000703515	3	1.18667e-05	1.97437e-07
2	1	0	1	0	47.6853	0.285805	0.285592	0.00069936	3	1.19371e-05	1.99732e-07
2	1	0	1	0	47.7853	0.290806	0.2906	0.000697297	3	1.20072e-05	2.02634e-07
2	1	0	1	0	47.8853	0.295806	0.295634	0.000696674	3	1.20771e-05	2.05961e-07
2	0	0	1	0	47.9749	0.299706	0.299512	0.000609244	3	1.2139e-05	1.82476e-07
2	0	0	1	0	48.0749	0.294706	0.294449	0.000564722	3	1.21971e-05	1.66282e-07
2	0	0	1	0	48.1749	0.289706	0.289497	0.000542579	3	1.22521e-05	1.57075e-07
2	0	0	1	0	48.2749	0.284705	0.284473	0.000523998	3	1.23052e-05	1.49063e-07
2	0	0	1	0	48.3749	0.279705	0.279507	0.000509916	3	1.23567e-05	1.42525e-07
2	0	0	1	0	48.4749	0.274705	0.274502	0.000497161	3	1.24068e-05	1.36472e-07
2	0	0	1	0	48.5749	0.269705	0.269558	0.000485551	3	1.24557e-05	1.30884e-07
2	0	0	1	0	48.6749	0.264705	0.264524	0.000475235	3	1.25035e-05	1.25711e-07
2	0	0	1	0	48.7749	0.259704	0.259524	0.000465304	3	1.25503e-05	1.20758e-07
2	0	0	1	0	48.8749	0.254704	0.254476	0.000457097	3	1.25962e-05	1.1632e-07
2	0	0	1	0	48.9749	0.249704	0.249478	0.000450392	3	1.26413e-05	1.12363e-07
2	0	0	1	0	49.0749	0.244704	0.244473	0.000440778	3	1.26856e-05	1.07758e-07
2	0	0	1	0	49.1749	0.239703	0.239504	0.000433716	3	1.27291e-05	1.03877e-07
2	0	0	1	0	49.2749	0.234703	0.234487	0.000426767	3	1.27719e-05	1.00071e-07
2	0	0	1	0	49.3749	0.229703	0.229504	0.000419205	3	1.28141e-05	9.62091e-08
2	0	0	1	0	49.4749	0.224703	0.224478	0.000413029	3	1.28555e-05	9.27159e-08
2	0	0	1	0	49.5749	0.219703	0.219494	0.000407714	3	1.28963e-05	8.94909e-08
2	0	0	1	0	49.6749	0.214702	0.214465	0.000399575	3	1.29365e-05	8.56948e-08
2	0	0	1	0	49.7749	0.209702	0.209437	0.000393804	3	1.2976e-05	8.2477e-08
2	0	0	1	0	49.8749	0.204702	0.204474	0.00038697	3	1.30149e-05	7.91254e-08
2	0	0	1	0	49.9749	0.199702	0.199515	0.000381222	3	1.30532e-05	7.60595e-08
2	0	0	1	0	50.0749	0.194702	0.194459	0.000375426	3	1.30907e-05	7.30051e-08
2	0	0	1	0	50.1749	0.189701	0.18951	0.000368949	3	1.31277e-05	6.99194e-08
2	0	0	1	0	50.2749	0.184701	0.184522	0.000362357	3	1.31642e-05	6.68627e-08
2	0	0	1	0	50.3749	0.179701	0.179462	0.000354546	3	1.32e-05	6.36274e-08
2	0	0	1	0	50.4749	0.174701	0.174489	0.000353873	3	1.3235e-05	6.17468e-08
2	0	0	1	0	50.5749	0.169701	0.169502	0.000342418	3	1.32695e-05	5.80404e-08
2	0	0	1	0	50.6749	0.1647	0.164504	0.000334824	3	1.33032e-05	5.508e-08
2	0	0	1	0	50.7749	0.1597	0.159508	0.000328544	3	1.33362e-05	5.24055e-08
2	0	0	1	0	50.8749	0.1547	0.154514	0.000320481	3	1.33684e-05	4.95187e-08
2	0	0	1	0	50.9749	0.1497	0.149487	0.000311333	3	1.33998e-05	4.65401e-08
2	0	0	0	0	51.0751	0.1447	0.144428	0.000301884	3	1.34304e-05	4.36004e-08
2	0	0	0	0	51.1751	0.139699	0.139452	0.000291411	3	1.346e-05	4.06377e-08
2	0	0	0	0	51.2751	0.134699	0.134488	0.000283249	3	1.34884e-05	3.80936e-08
2	0	0	0	0	51.3751	0.129699	0.129518	0.000270128	3	1.3516e-05	3.49865e-08
2	0	0	0	0	51.4751	0.124699	0.124468	0.000255677	3	1.35421e-05	3.18235e-08
2	0	0	0	0	51.5751	0.119699	0.11948	0.000240341	3	1.35667e-05	2.87159e-08
2	0	0	0	0	51.6751	0.114698	0.114515	0.000221337	3	1.35896e-05	2.53464e-08
2	0	0	0	0	51.7751	0.109698	0.109554	0.000198128	3	1.36104e-05	2.17057e-08
2	0	0	0	0	51.8751	0.104698	0.104449	0.000172987	3	1.36288e-05	1.80684e-08
2	0	0	0	0	51.9751	0.0996979	0.0994965	0.000139134	3	1.36442e-05	1.38433e-08
2	0	0	0	0	52.0751	0.0946977	0.0944821	0.000100455	3	1.3656e-05	9.4912e-09
2	0	0	0	0	52.1751	0.0896975	0.0895345	5.15117e-05	3	1.36635e-05	4.61208e-09
2	0	0	0	0	52.2751	0.0846973	0.0844671	-7.31104e-06	3	1.36656e-05	-6.17542e-10
2	0	0	0	0	52.3751	0.0796971	0.0794729	-7.85516e-05	3	1.36613e-05	-6.24272e-09
2	0	0	0	0	52.4751	0.0746969	0.0745295	-0.000163879	3	1.36491e-05	-1.22138e-08
2	0	0	0	0	52.5751	0.0696967	0.0694558	-0.000263181	3	1.36278e-05	-1.82794e-08
2	0	0	0	0	52.6751	0.0646964	0.0644795	-0.00037795	3	1.35957e-05	-2.43701e-08
2	0	0	0	0	52.7751	0.0596963	0.0594789	-0.000504691	3	1.35514e-05	-3.00185e-08
2	0	0	0	0	52.8751	0.0546961	0.0544847	-0.000642675	3	1.34939e-05	-3.50159e-08
2	0	0	0	0	52.9751	0.0496959	0.0494873	-0.000786373	3	1.34223e-05	-3.89154e-08
2	0	0	0	0	53.0751	0.0446957	0.0444941	-0.000921481	3	1.33367e-05	-4.10004e-08
2	0	0	0	0	53.1751	0.0396955	0.0394277	-0.0010448	3	1.3238e-05	-4.1194e-08
2	0	0	0	0	53.2751	0.0346953	0.0344409	-0.00114626	3	1.3128e-05	-3.94783e-08
2	0	0	0	0	53.3751	0.0296951	0.0294318	-0.00122212	3	1.30091e-05	-3.59691e-08
2	0	0	0	0	53.4751	0.0246949	0.0245001	-0.00126617	3	1.28844e-05	-3.10212e-08
2	0	0	0	0	53.5751	0.0196946	0.019473	-0.00128106	3	1.27567e-05	-2.49461e-08
2	0	0	0	0	53.6751	0.0146944	0.0144682	-0.00126757	3	1.26289e-05	-1.83394e-08
2	0	0	0	0	53.7751	0.00969425	0.00944954	-0.00123873	3	1.25033e-05	-1.17054e-08
2	0	0	0	0	53.8751	0.00469405	0.00449134	-0.00119404	3	1.23816e-05	-5.36282e-09
2	0	0	0	0	53.9751	-0.000306156	-0.000480643	-0.00114025	3	1.22647e-05	5.48052e-10
2	0	0	0	0	54.0751	-0.00530636	-0.00553956	-0.00108542	3	1.21531e-05	6.01275e-09
2	0	0	0	0	54.1751	-0.0103066	-0.0105677	-0.00103012	3	1.20472e-05	1.0886e-08
2	0	0	0	0	54.2751	-0.0153068	-0.0155482	-0.000977856	3	1.19466e-05	1.52039e-08
2	0	0	0	0	54.3751	-0.020307	-0.0205488	-0.000928275	3	1.18513e-05	1.90749e-08
2	0	0	0	0	54.4751	-0.0253072	-0.0255399	-0.000881186	3	1.17608e-05	2.25054e-08
2	0	0	0	0	54.5751	-0.0303074	-0.03055	-0.000840075	3	1.16746e-05	2.56643e-08
2	0	0	0	0	54.6751	-0.0353076	-0.0355655	-0.000800365	3	1.15925e-05	2.84653e-08
2	0	0	0	0	54.7751	-0.0403078	-0.0405406	-0.000768373	3	1.15139e-05	3.11503e-08
2	0	0	0	0	54.8751	-0.045308	-0.0455126	-0.000735727	3	1.14387e-05	3.34849e-08
2	0	0	0	0	54.9751	-0.0503082	-0.0505567	-0.000707807	3	1.13664e-05	3.57844e-08
2	0	0	0	0	55.0751	-0.0553084	-0.0555668	-0.000681984	3	1.12967e-05	3.78957e-08
2	0	0	0	0	55.1751	-0.0603086	-0.0605526	-0.000660017	3	1.12295e-05	3.99658e-08
2	0	0	0	0	55.2751	-0.0653088	-0.0655543	-0.000637554	3	1.11646e-05	4.17944e-08
2	0	0	0	0	55.3751	-0.070309	-0.0705719	-0.000618724	3	1.11017e-05	4.36645e-08
2	0	0	0	0	55.4751	-0.0753092	-0.0755661	-0.000601011	3	1.10407e-05	4.54161e-08
2	0	0	0	0	55.5751	-0.0803094	-0.0805699	-0.000583211	3	1.09813e-05	4.69892e-08
2	0	0	0	0	55.6751	-0.0853096	-0.0855694	-0.000568317	3	1.09237e-05	4.86305e-08
2	0	0	0	0	55.7751	-0.0903098	-0.0905266	-0.000554304	3	1.08675e-05	5.01792e-08
2	0	0	0	0	55.8751	-0.09531	-0.0955473	-0.000541347	3	1.08126e-05	5.17243e-08
2	0	0	1	0	55.9753	-0.10031	-0.10056	-0.000526884	3	1.0759e-05	5.29833e-08
2	0	0	1	0	56.0753	-0.10531	-0.105563	-0.000516713	3	1.07067e-05	5.4546e-08
2	0	0	1	0	56.1753	-0.110311	-0.110547	-0.000504981	3	1.06555e-05	5.58241e-08
2	0	0	1	0	56.2753	-0.115311	-0.115552	-0.000496267	3	1.06053e-05	5.73446e-08
2	0	0	1	0	56.3753	-0.120311	-0.120547	-0.000486165	3	1.05562e-05	5.86058e-08
2	0	0	1	0	56.4753	-0.125311	-0.125536	-0.000476026	3	1.05079e-05	5.97585e-08
2	0	0	1	0	56.5753	-0.130311	-0.130518	-0.00046819	3	1.04606e-05	6.11071e-08
2	0	0	1	0	56.6753	-0.135312	-0.135527	-0.000459454	3	1.04141e-05	6.22683e-08
2	0	0	1	0	56.7753	-0.140312	-0.140569	-0.000453079	3	1.03684e-05	6.36887e-08
2	0	0	1	0	56.8753	-0.145312	-0.145523	-0.000444266	3	1.03235e-05	6.46508e-08
2	0	0	1	0	56.9753	-0.150312	-0.150583	-0.000437655	3	1.02793e-05	6.59032e-08
2	0	0	1	0	57.0753	-0.155312	-0.155593	-0.000431257	3	1.02357e-05	6.71004e-08
2	0	0	1	0	57.1753	-0.160313	-0.160538	-0.000422956	3	1.01929e-05	6.79007e-08
2	0	0	1	0	57.2753	-0.165313	-0.165604	-0.000417239	3	1.01506e-05	6.90962e-08
2	0	0	1	0	57.3753	-0.170313	-0.17057	-0.000413195	3	1.01089e-05	7.04788e-08
2	0	0	1	0	57.4753	-0.175313	-0.175574	-0.000409537	3	1.00677e-05	7.19041e-08
2	0	0	1	0	57.5753	-0.180313	-0.180546	-0.000405704	3	1.0027e-05	7.32482e-08
2	0	0	1	0	57.6753	-0.185314	-0.185558	-0.000398368	3	9.98675e-06	7.39205e-08
2	0	0	1	0	57.7753	-0.190314	-0.190549	-0.00039525	3	9.94691e-06	7.53147e-08
2	0	0	1	0	57.8753	-0.195314	-0.195544	-0.00039143	3	9.90741e-06	7.65416e-08
2	1	0	1	1	57.9692	-0.199989	-0.200219	-0.000375144	3	9.87067e-06	7.51108e-08
2	1	0	0	1	58.0647	-0.195214	-0.195376	-0.000262442	3	9.84444e-06	5.12749e-08
2	1	0	0	1	58.1647	-0.190214	-0.190441	-0.000246253	3	9.81934e-06	4.68968e-08
2	1	0	0	1	58.2647	-0.185214	-0.185407	-0.000233247	3	9.79569e-06	4.32456e-08
2	1	0	0	1	58.3647	-0.180213	-0.180404	-0.000221988	3	9.77323e-06	4.00476e-08
2	1	0	0	1	58.4647	-0.175213	-0.175403	-0.000212151	3	9.75176e-06	3.7212e-08
2	1	0	0	1	58.5647	-0.170213	-0.170402	-0.000205126	3	9.73117e-06	3.49539e-08
2	1	0	0	1	58.6647	-0.165213	-0.1654	-0.000197147	3	9.71139e-06	3.26082e-08
2	1	0	0	1	58.7647	-0.160213	-0.16044	-0.000190485	3	9.69233e-06	3.05613e-08
2	1	0	0	1	58.8647	-0.155212	-0.155472	-0.000183726	3	9.67396e-06	2.85643e-08
2	1	0	0	1	58.9647	-0.150212	-0.150396	-0.000176798	3	9.65626e-06	2.65898e-08
2	1	0	0	1	59.0647	-0.145212	-0.145389	-0.00017181	3	9.63915e-06	2.49793e-08
2	1	0	0	1	59.1647	-0.140212	-0.140432	-0.000166147	3	9.62261e-06	2.33324e-08
2	1	0	0	1	59.2647	-0.135212	-0.135432	-0.000158969	3	9.60661e-06	2.15295e-08
2	1	0	0	1	59.3647	-0.130211	-0.130375	-0.000154938	3	9.59115e-06	2.01999e-08
2	1	0	0	1	59.4647	-0.125211	-0.125362	-0.000150228	3	9.57619e-06	1.8833e-08
2	1	0	0	1	59.5647	-0.120211	-0.120403	-0.000145583	3	9.56172e-06	1.75286e-08
2	1	0	0	1	59.6647	-0.115211	-0.115372	-0.000140315	3	9.5477e-06	1.61884e-08
2	1	0	0	1	59.7647	-0.110211	-0.110385	-0.000136396	3	9.53413e-06	1.5056e-08
2	1	0	0	1	59.8647	-0.10521	-0.105409	-0.00013257	3	9.52097e-06	1.3974e-08
2	1	0	0	1	59.9647	-0.10021	-0.100392	-0.000129512	3	9.50821e-06	1.3002e-08
2	1	0	1	1	60.0649	-0.09521	-0.0954339	-0.000124225	3	9.4958e-06	1.18553e-08
2	1	0	1	1	60.1649	-0.0902098	-0.0903591	-0.000120811	3	9.48381e-06	1.09164e-08
2	1	0	1	1	60.2649	-0.0852096	-0.085386	-0.000118151	3	9.47216e-06	1.00884e-08
2	1	0	1	1	60.3649	-0.0802094	-0.0803992	-0.000113275	3	9.46087e-06	9.10725e-09
2	1	0	1	1	60.4649	-0.0752092	-0.075405	-0.000110822	3	9.44993e-06	8.35652e-09
2	1	0	1	1	60.5649	-0.070209	-0.0704277	-0.000107183	3	9.43934e-06	7.54865e-09
2	1	0	1	1	60.6649	-0.0652088	-0.0654387	-0.000103615	3	9.42908e-06	6.78043e-09
2	1	0	0	1	60.6866	-0.0640837	-0.064315	-0.000104027	3	9.42691e-06	6.69046e-09