File: AutoAnalysis Examples/EC/C003B-0ppb-B_C01.mpt
EC-Lab ASCII FILE
Nb header lines : 59

Cyclic Voltammetry

Run on channel : 1 (SN 22398)
User :
CE vs. WE compliance from -10 V to 10 V
Electrode connection : standard
Ewe ctrl range : min = -1.00 V, max = 1.00 V
Safety Limits :
	Ewe min = -2.00 V
	Ewe max = 2.00 V
	|I| = 50.000 mA
	for t > 10 ms
Acquisition started on : 11/21/2018 11:08:09
Technique started on : 11/21/2018 11:08:09
Saved on :
	File : C003B-0ppb-B_C01.mpr
	Directory : \\ECCOMPUTER\Users\Lab User\Google Drive\Electrochemical Data\EC-Lab\Data\FREDsense\Tim\2018.11.21 - EC comparison to High Throughput\
	Host : 172.16.1.30
Device : SP-50 (SN 0301030103010301)
Address : USB
EC-Lab for windows v11.02 (software)
Internet server v11.02 (firmware)
Command interpretor v11.02 (firmware)
Electrode material : Au/Pd
Initial state :
Electrolyte : NaCl (0.2M)
Comments : Fe(CN)63-/Fe(CN)64- 5.10-3 M
Reference electrode : SCE Saturated Calomel Electrode (0.241 V)
Electrode surface area : 0.001 cm²
Characteristic mass : 0.001 g
Equivalent Weight : 0.000 g/eq.
Density : 0.000 g/cm3
Cycle Definition : Charge/Discharge alternance
Ei (V)              -0.100
vs.                 Ref
dE/dt               50.000
dE/dt unit          mV/s
E1 (V)              0.300
vs.                 Ref
Step percent        50
N                   10
E range min (V)     -1.000
E range max (V)     1.000
I Range             Auto
I Range min         Unset
I Range max         Unset
I Range init        Unset
Bandwidth           5
E2 (V)              -0.200
vs.                 Ref
nc cycles           2
Reverse Scan        1
Ef (V)              0.000
vs.                 Eoc

mode	ox/red	error	control changes	counter inc.	time/s	control/V	Ewe/V	<I>/mA	cycle number	(Q-Qo)/C	P/W
2	1	0	1	0	0.000000000000000E+000	-0.0984851	-0.0987966	-5.39779e-05	1	0.0000000E+000	5.33283e-09
2	1	0	0	0	0.111	-0.0929349	-0.0931363	-5.63619e-06	1	9.36774e-10	5.24934e-10
2	1	0	1	0	0.2265	-0.0871597	-0.0873907	4.34234e-05	1	4.84155e-09	-3.7948e-09
2	1	0	1	0	0.3265	-0.0821595	-0.0823403	5.05155e-05	1	9.92136e-09	-4.15946e-09
2	1	0	1	0	0.4265	-0.0771593	-0.0773514	5.31297e-05	1	1.5445e-08	-4.10966e-09
2	1	0	1	0	0.5265	-0.0721591	-0.0723953	5.77118e-05	1	2.13143e-08	-4.17806e-09
2	1	0	1	0	0.6265	-0.0671589	-0.0673226	5.895e-05	1	2.74477e-08	-3.96867e-09
2	1	0	1	0	0.7265	-0.0621587	-0.0623124	6.13894e-05	1	3.38509e-08	-3.82532e-09
2	1	0	1	0	0.8265	-0.0571585	-0.0573532	6.33148e-05	1	4.04541e-08	-3.6313e-09
2	1	0	1	0	0.9265	-0.0521583	-0.0523706	6.92375e-05	1	4.72877e-08	-3.62601e-09
2	1	0	1	0	1.0265	-0.0471581	-0.0473223	6.80487e-05	1	5.43382e-08	-3.22022e-09
2	1	0	1	0	1.1265	-0.0421579	-0.0423376	6.884e-05	1	6.16062e-08	-2.91452e-09
2	1	0	1	0	1.2265	-0.0371577	-0.0373348	7.22934e-05	1	6.91232e-08	-2.69906e-09
2	1	0	1	0	1.3265	-0.0321575	-0.0323809	7.54252e-05	1	7.68907e-08	-2.44233e-09
2	1	0	1	0	1.4265	-0.0271573	-0.0273177	7.95656e-05	1	8.49692e-08	-2.17355e-09
2	1	0	1	0	1.5265	-0.022157	-0.022368	8.32998e-05	1	9.34118e-08	-1.86325e-09
2	1	0	1	0	1.6265	-0.0171568	-0.017396	8.78606e-05	1	1.02296e-07	-1.52842e-09
2	1	0	1	0	1.7265	-0.0121566	-0.0123286	9.4209e-05	1	1.11726e-07	-1.16147e-09
2	1	0	1	0	1.8265	-0.00715643	-0.00737357	0.000102292	1	1.2184e-07	-7.54258e-10
2	1	0	1	0	1.9265	-0.00215623	-0.00238357	0.000111122	1	1.32851e-07	-2.64867e-10
2	1	0	1	0	2.0265	0.00284397	0.00269231	0.000125268	1	1.45111e-07	3.37259e-10
2	1	0	1	0	2.1265	0.00784417	0.00765687	0.000142686	1	1.58881e-07	1.09253e-09
2	1	0	1	0	2.2265	0.0128444	0.0127232	0.000167419	1	1.74704e-07	2.13011e-09
2	1	0	1	0	2.3265	0.0178446	0.0177015	0.000197835	1	1.93235e-07	3.50198e-09
2	1	0	1	0	2.4265	0.0228448	0.0226364	0.000237481	1	2.15254e-07	5.37573e-09
2	1	0	1	0	2.5265	0.027845	0.0276964	0.000288541	1	2.41865e-07	7.99154e-09
2	1	0	1	0	2.6265	0.0328452	0.0326694	0.000353972	1	2.74174e-07	1.15641e-08
2	1	0	1	0	2.7265	0.0378454	0.0376902	0.000429298	1	3.13484e-07	1.61803e-08
2	1	0	1	0	2.8265	0.0428456	0.0426908	0.000518905	1	3.61168e-07	2.21525e-08
2	1	0	1	0	2.9265	0.0478458	0.0476384	0.000619424	1	4.18364e-07	2.95084e-08
2	1	0	1	0	3.0265	0.052846	0.0527238	0.000728273	1	4.86087e-07	3.83973e-08
2	1	0	1	0	3.1265	0.0578462	0.057699	0.000835048	1	5.64579e-07	4.81814e-08
2	1	0	1	0	3.2265	0.0628464	0.0626816	0.000934694	1	6.53542e-07	5.85881e-08
2	1	0	1	0	3.3265	0.0678466	0.0676631	0.00102368	1	7.52033e-07	6.92653e-08
2	1	0	1	0	3.4265	0.0728468	0.0726743	0.00109108	1	8.58325e-07	7.92936e-08
2	1	0	1	0	3.5265	0.077847	0.0777226	0.00113866	1	9.70375e-07	8.84993e-08
2	1	0	1	0	3.6265	0.0828472	0.0827073	0.00116151	1	1.08592e-06	9.60655e-08
2	1	0	1	0	3.7265	0.0878474	0.0876867	0.00116599	1	1.20283e-06	1.02242e-07
2	1	0	1	0	3.8265	0.0928476	0.092717	0.00115478	1	1.31936e-06	1.07068e-07
2	1	0	1	0	3.9265	0.0978478	0.0976275	0.00113022	1	1.4341e-06	1.10341e-07
2	1	0	1	0	4.0265	0.102848	0.102708	0.00110107	1	1.54612e-06	1.13088e-07
2	1	0	1	0	4.1265	0.107848	0.107653	0.00106864	1	1.6549e-06	1.15042e-07
2	1	0	1	0	4.2265	0.112848	0.112718	0.00103319	1	1.76022e-06	1.16459e-07
2	1	0	1	0	4.3265	0.117849	0.117654	0.000998317	1	1.86208e-06	1.17456e-07
2	1	0	1	0	4.4265	0.122849	0.122675	0.000966298	1	1.9606e-06	1.18541e-07
2	1	0	1	0	4.5265	0.127849	0.127653	0.000935407	1	2.05595e-06	1.19408e-07
2	1	0	1	0	4.6265	0.132849	0.132744	0.000907677	1	2.1484e-06	1.20489e-07
2	1	0	1	0	4.7265	0.137849	0.13765	0.000880462	1	2.23816e-06	1.21196e-07
2	1	0	1	0	4.8265	0.14285	0.142686	0.000858606	1	2.32553e-06	1.22511e-07
2	1	0	0	0	4.9267	0.14785	0.147698	0.000838021	1	2.41085e-06	1.23774e-07
2	1	0	0	0	5.0267	0.15285	0.152705	0.000823439	1	2.49405e-06	1.25743e-07
2	1	0	0	0	5.1267	0.15785	0.157677	0.000802498	1	2.57548e-06	1.26536e-07
2	1	0	0	0	5.2267	0.16285	0.162658	0.000786209	1	2.65528e-06	1.27883e-07
2	1	0	0	0	5.3267	0.167851	0.167686	0.000773247	1	2.73366e-06	1.29663e-07
2	1	0	0	0	5.4267	0.172851	0.172671	0.000762873	1	2.81069e-06	1.31726e-07
2	1	0	0	0	5.5267	0.177851	0.177682	0.000749531	1	2.88656e-06	1.33178e-07
2	1	0	0	0	5.6267	0.182851	0.18266	0.000739578	1	2.96136e-06	1.35091e-07
2	1	0	0	0	5.7267	0.187851	0.187672	0.000729271	1	3.03519e-06	1.36864e-07
2	1	0	0	0	5.8267	0.192852	0.192699	0.00072253	1	3.10818e-06	1.39231e-07
2	1	0	0	0	5.9267	0.197852	0.197697	0.000714599	1	3.18037e-06	1.41274e-07
2	1	0	0	0	6.0267	0.202852	0.202673	0.000707532	1	3.25186e-06	1.43398e-07
2	1	0	0	0	6.1267	0.207852	0.207654	0.000702794	1	3.32276e-06	1.45938e-07
2	1	0	0	0	6.2267	0.212852	0.212759	0.000696315	1	3.3931e-06	1.48147e-07
2	1	0	0	0	6.3267	0.217853	0.217712	0.000693651	1	3.46297e-06	1.51016e-07
2	1	0	0	0	6.4267	0.222853	0.222682	0.000688587	1	3.53239e-06	1.53336e-07
2	1	0	0	0	6.5267	0.227853	0.227724	0.000685703	1	3.60144e-06	1.56151e-07
2	1	0	0	0	6.6267	0.232853	0.232722	0.000681831	1	3.67019e-06	1.58677e-07
2	1	0	0	0	6.7267	0.237853	0.237663	0.000679301	1	3.73865e-06	1.61444e-07
2	1	0	0	0	6.8267	0.242854	0.242691	0.000676675	1	3.80688e-06	1.64223e-07
2	1	0	0	0	6.9267	0.247854	0.247741	0.000676807	1	3.87493e-06	1.67673e-07
2	1	0	0	0	7.0267	0.252854	0.252693	0.000674021	1	3.9428e-06	1.7032e-07
2	1	0	0	0	7.1267	0.257854	0.257708	0.000673665	1	4.01063e-06	1.73609e-07
2	1	0	0	0	7.2267	0.262854	0.262706	0.000672154	1	4.07836e-06	1.76579e-07
2	1	0	0	0	7.3267	0.267855	0.267735	0.000674322	1	4.14605e-06	1.8054e-07
2	1	0	0	0	7.4267	0.272855	0.272691	0.000674401	1	4.21374e-06	1.83903e-07
2	1	0	0	0	7.5267	0.277855	0.277699	0.000673076	1	4.28147e-06	1.86913e-07
2	1	0	0	0	7.6267	0.282855	0.282728	0.000674943	1	4.34928e-06	1.90826e-07
2	1	0	0	0	7.7267	0.287855	0.287712	0.000675553	1	4.41718e-06	1.94365e-07
2	1	0	0	0	7.8267	0.292856	0.292716	0.000677169	1	4.48518e-06	1.98218e-07
2	1	0	0	0	7.9267	0.297856	0.297706	0.000677392	1	4.55337e-06	2.01663e-07
2	0	0	1	0	8.0153	0.297706	0.297503	0.000538998	1	4.60801e-06	1.60354e-07
2	0	0	1	0	8.1153	0.292706	0.292496	0.000491607	1	4.65908e-06	1.43793e-07
2	0	0	1	0	8.2153	0.287705	0.287538	0.000460084	1	4.70631e-06	1.32292e-07
2	0	0	1	0	8.3153	0.282705	0.282553	0.000434244	1	4.75072e-06	1.22697e-07
2	0	0	1	0	8.4153	0.277705	0.277535	0.000416569	1	4.79287e-06	1.15612e-07
2	0	0	1	0	8.5153	0.272705	0.272498	0.000397211	1	4.83319e-06	1.08239e-07
2	0	0	1	0	8.6153	0.267705	0.267538	0.000381967	1	4.87192e-06	1.02191e-07
2	0	0	1	0	8.7153	0.262704	0.262521	0.000369486	1	4.90928e-06	9.69979e-08
2	0	0	1	0	8.8153	0.257704	0.257529	0.000359214	1	4.94544e-06	9.25082e-08
2	0	0	1	0	8.9153	0.252704	0.252499	0.000347883	1	4.98049e-06	8.78401e-08
2	0	0	1	0	9.0153	0.247704	0.247499	0.000339268	1	5.0146e-06	8.39687e-08
2	0	0	1	0	9.1153	0.242704	0.242478	0.000330913	1	5.04782e-06	8.0239e-08
2	0	0	1	0	9.2153	0.237703	0.237504	0.000323003	1	5.08021e-06	7.67144e-08
2	0	0	1	0	9.3153	0.232703	0.232507	0.0003174	1	5.11185e-06	7.37978e-08
2	0	0	1	0	9.4153	0.227703	0.227505	0.000307328	1	5.14278e-06	6.99188e-08
2	0	0	1	0	9.5153	0.222703	0.222464	0.000303075	1	5.17304e-06	6.74231e-08
2	0	0	1	0	9.6153	0.217703	0.217488	0.000296576	1	5.20268e-06	6.45019e-08
2	0	0	1	0	9.7153	0.212702	0.2125	0.000289892	1	5.23172e-06	6.16022e-08
2	0	0	1	0	9.8153	0.207702	0.207508	0.000284902	1	5.26017e-06	5.91195e-08
2	0	0	1	0	9.9153	0.202702	0.202472	0.000279684	1	5.28806e-06	5.66281e-08
2	0	0	1	0	10.0153	0.197702	0.197481	0.000273749	1	5.31541e-06	5.40601e-08
2	0	0	1	0	10.1153	0.192702	0.192497	0.00026653	1	5.34225e-06	5.13062e-08
2	0	0	1	0	10.2153	0.187701	0.187514	0.00026355	1	5.36855e-06	4.94194e-08
2	0	0	1	0	10.3153	0.182701	0.182503	0.000258016	1	5.39434e-06	4.70887e-08
2	0	0	1	0	10.4153	0.177701	0.17749	0.000252764	1	5.41963e-06	4.48631e-08
2	0	0	1	0	10.5153	0.172701	0.172533	0.000245928	1	5.44439e-06	4.24307e-08
2	0	0	1	0	10.6153	0.167701	0.167513	0.000242185	1	5.46865e-06	4.05692e-08
2	0	0	1	0	10.7153	0.1627	0.162471	0.000238181	1	5.49235e-06	3.86975e-08
2	0	0	1	0	10.8153	0.1577	0.157528	0.000232719	1	5.51551e-06	3.66597e-08
2	0	0	1	0	10.9153	0.1527	0.152501	0.000220573	1	5.53811e-06	3.36376e-08
2	0	0	1	0	11.0153	0.1477	0.147468	0.000219955	1	5.5601e-06	3.24364e-08
2	0	0	0	0	11.1155	0.1427	0.142474	0.000214504	1	5.58152e-06	3.05612e-08
2	0	0	0	0	11.2155	0.137699	0.137473	0.000205428	1	5.60216e-06	2.82409e-08
2	0	0	0	0	11.3155	0.132699	0.13251	0.000197095	1	5.62206e-06	2.6117e-08
2	0	0	0	0	11.4155	0.127699	0.127489	0.000187593	1	5.64109e-06	2.39161e-08
2	0	0	0	0	11.5155	0.122699	0.122499	0.000177203	1	5.6591e-06	2.17072e-08
2	0	0	0	0	11.6155	0.117699	0.117486	0.000164164	1	5.67596e-06	1.92869e-08
2	0	0	0	0	11.7155	0.112698	0.11245	0.000148149	1	5.69142e-06	1.66594e-08
2	0	0	0	0	11.8155	0.107698	0.107487	0.000130595	1	5.70523e-06	1.40372e-08
2	0	0	0	0	11.9155	0.102698	0.102469	0.00010793	1	5.71698e-06	1.10595e-08
2	0	0	0	0	12.0155	0.0976978	0.0975045	8.06908e-05	1	5.7262e-06	7.86772e-09
2	0	0	0	0	12.1155	0.0926976	0.0925506	4.49672e-05	1	5.73229e-06	4.16174e-09
2	0	0	0	0	12.2155	0.0876974	0.0874673	1.823e-06	1	5.73448e-06	1.59452e-10
2	0	0	0	0	12.3155	0.0826972	0.0825175	-5.04411e-05	1	5.73188e-06	-4.16228e-09
2	0	0	0	0	12.4155	0.077697	0.0775191	-0.000116504	1	5.72338e-06	-9.03131e-09
2	0	0	0	0	12.5155	0.0726968	0.07251	-0.000192504	1	5.70778e-06	-1.39584e-08
2	0	0	0	0	12.6155	0.0676966	0.0674691	-0.000282353	1	5.68391e-06	-1.90501e-08
2	0	0	0	0	12.7155	0.0626964	0.0625141	-0.000380796	1	5.65058e-06	-2.38051e-08
2	0	0	0	0	12.8155	0.0576962	0.0575198	-0.000488152	1	5.60694e-06	-2.80784e-08
2	0	0	0	0	12.9155	0.052696	0.0525235	-0.000592474	1	5.55262e-06	-3.11188e-08
2	0	0	0	0	13.0155	0.0476958	0.0474582	-0.000695268	1	5.48779e-06	-3.29961e-08
2	0	0	0	0	13.1155	0.0426956	0.0424841	-0.0007801	1	5.41362e-06	-3.31418e-08
2	0	0	0	0	13.2155	0.0376954	0.0375047	-0.000844229	1	5.33189e-06	-3.16625e-08
2	0	0	0	0	13.3155	0.0326952	0.0324935	-0.000885722	1	5.24485e-06	-2.87802e-08
2	0	0	0	0	13.4155	0.027695	0.0274674	-0.000899673	1	5.15509e-06	-2.47117e-08
2	0	0	0	0	13.5155	0.0226948	0.0224732	-0.000893498	1	5.06497e-06	-2.00797e-08
2	0	0	0	0	13.6155	0.0176946	0.0174938	-0.000867701	1	4.97655e-06	-1.51794e-08
2	0	0	0	0	13.7155	0.0126944	0.0124985	-0.000832539	1	4.8912e-06	-1.04055e-08
2	0	0	0	0	13.8155	0.00769417	0.00747771	-0.000793347	1	4.80969e-06	-5.93242e-09
2	0	0	0	0	13.9155	0.00269396	0.0024824	-0.000748724	1	4.73234e-06	-1.85864e-09
2	0	0	0	0	14.0155	-0.00230624	-0.00255001	-0.000708646	1	4.65921e-06	1.80705e-09
2	0	0	0	0	14.1155	-0.00730644	-0.00753365	-0.000668485	1	4.5903e-06	5.03614e-09
2	0	0	0	0	14.2155	-0.0123066	-0.0125724	-0.000631716	1	4.52514e-06	7.9422e-09
2	0	0	0	0	14.3155	-0.0173068	-0.0175306	-0.000596192	1	4.46347e-06	1.04516e-08
2	0	0	0	0	14.4155	-0.0223071	-0.0225206	-0.000566759	1	4.4051e-06	1.27638e-08
2	0	0	0	0	14.5155	-0.0273073	-0.0275276	-0.000537633	1	4.34961e-06	1.47997e-08
2	0	0	0	0	14.6155	-0.0323075	-0.032559	-0.000515597	1	4.29665e-06	1.67873e-08
2	0	0	0	0	14.7155	-0.0373077	-0.037497	-0.000493932	1	4.24596e-06	1.8521e-08
2	0	0	0	0	14.8155	-0.0423079	-0.0425125	-0.000475344	1	4.19726e-06	2.02081e-08
2	0	0	0	0	14.9155	-0.0473081	-0.047511	-0.000458666	1	4.1504e-06	2.17917e-08
2	0	0	0	0	15.0155	-0.0523083	-0.0525678	-0.000444842	1	4.10516e-06	2.33843e-08
2	0	0	0	0	15.1155	-0.0573085	-0.0575811	-0.000428008	1	4.06136e-06	2.46452e-08
2	0	0	0	0	15.2155	-0.0623087	-0.0625817	-0.000415923	1	4.01893e-06	2.60291e-08
2	0	0	0	0	15.3155	-0.0673089	-0.0675473	-0.000403727	1	3.9777e-06	2.72707e-08
2	0	0	0	0	15.4155	-0.0723091	-0.0725628	-0.000392444	1	3.9376e-06	2.84768e-08
2	0	0	0	0	15.5155	-0.0773093	-0.0775157	-0.000383174	1	3.89852e-06	2.9702e-08
2	0	0	0	0	15.6155	-0.0823095	-0.0825322	-0.000374801	1	3.86037e-06	3.09331e-08
2	0	0	0	0	15.7155	-0.0873097	-0.087537	-0.000364607	1	3.8231e-06	3.19166e-08
2	0	0	0	0	15.8155	-0.0923099	-0.0925334	-0.000359202	1	3.78663e-06	3.32382e-08
2	0	0	0	0	15.9155	-0.0973101	-0.0975478	-0.000350485	1	3.75093e-06	3.4189e-08
2	0	0	1	0	16.0157	-0.10231	-0.102512	-0.000343598	1	3.71585e-06	3.5223e-08
2	0	0	1	0	16.1157	-0.107311	-0.107534	-0.000338593	1	3.68148e-06	3.64103e-08
2	0	0	1	0	16.2157	-0.112311	-0.112572	-0.000331344	1	3.64769e-06	3.73e-08
2	0	0	1	0	16.3157	-0.117311	-0.11757	-0.000325508	1	3.61446e-06	3.82701e-08
2	0	0	1	0	16.4157	-0.122311	-0.12253	-0.000320855	1	3.58178e-06	3.93143e-08
2	0	0	1	0	16.5157	-0.127311	-0.12752	-0.000318667	1	3.54958e-06	4.06362e-08
2	0	0	1	0	16.6157	-0.132312	-0.132536	-0.000312832	1	3.51782e-06	4.14616e-08
2	0	0	1	0	16.7157	-0.137312	-0.137548	-0.000307538	1	3.48649e-06	4.23014e-08
2	0	0	1	0	16.8157	-0.142312	-0.142545	-0.000305537	1	3.45555e-06	4.35527e-08
2	0	0	1	0	16.9157	-0.147312	-0.147538	-0.000301144	1	3.42499e-06	4.44302e-08
2	0	0	1	0	17.0157	-0.152312	-0.152519	-0.000297417	1	3.39476e-06	4.53619e-08
2	0	0	1	0	17.1157	-0.157313	-0.157568	-0.000295325	1	3.36481e-06	4.65338e-08
2	0	0	1	0	17.2157	-0.162313	-0.162554	-0.000292748	1	3.33516e-06	4.75873e-08
2	0	0	1	0	17.3157	-0.167313	-0.167511	-0.000291408	1	3.30578e-06	4.88139e-08
2	0	0	1	0	17.4157	-0.172313	-0.172554	-0.000287854	1	3.27661e-06	4.96702e-08
2	0	0	1	0	17.5157	-0.177313	-0.177484	-0.000285501	1	3.24764e-06	5.06719e-08
2	0	0	1	0	17.6157	-0.182314	-0.182587	-0.000283763	1	3.21882e-06	5.18113e-08
2	0	0	1	0	17.7157	-0.187314	-0.187568	-0.000282153	1	3.19016e-06	5.2923e-08
2	0	0	1	0	17.8157	-0.192314	-0.192584	-0.000281982	1	3.16161e-06	5.43052e-08
2	0	0	1	0	17.9157	-0.197314	-0.197542	-0.000280101	1	3.13313e-06	5.53317e-08
2	1	0	0	1	18.0051	-0.198214	-0.198426	-0.000157986	1	3.112e-06	3.13486e-08
2	1	0	0	1	18.1051	-0.193214	-0.193434	-0.000132084	1	3.09802e-06	2.55495e-08
2	1	0	0	1	18.2051	-0.188214	-0.188378	-0.000116953	1	3.08591e-06	2.20314e-08
2	1	0	0	1	18.3051	-0.183214	-0.18338	-0.000105754	1	3.07508e-06	1.93931e-08
2	1	0	0	1	18.4051	-0.178213	-0.178408	-9.68761e-05	1	3.06529e-06	1.72835e-08
2	1	0	0	1	18.5051	-0.173213	-0.173439	-8.83392e-05	1	3.05635e-06	1.53215e-08
2	1	0	0	1	18.6051	-0.168213	-0.168434	-7.98781e-05	1	3.04818e-06	1.34542e-08
2	1	0	0	1	18.7051	-0.163213	-0.16343	-7.59267e-05	1	3.04066e-06	1.24087e-08
2	1	0	0	1	18.8051	-0.158213	-0.158432	-6.86156e-05	1	3.03375e-06	1.08709e-08
2	1	0	0	1	18.9051	-0.153212	-0.153429	-6.38816e-05	1	3.02744e-06	9.8013e-09
2	1	0	0	1	19.0051	-0.148212	-0.1484	-5.89375e-05	1	3.02165e-06	8.74632e-09
2	1	0	0	1	19.1051	-0.143212	-0.143393	-5.37884e-05	1	3.01629e-06	7.71288e-09
2	1	0	0	1	19.2051	-0.138212	-0.13839	-5.01497e-05	1	3.01135e-06	6.94022e-09
2	1	0	0	1	19.3051	-0.133212	-0.133375	-4.5799e-05	1	3.0068e-06	6.10843e-09
2	1	0	0	1	19.4051	-0.128211	-0.128449	-4.23493e-05	1	3.00263e-06	5.43974e-09
2	1	0	0	1	19.5051	-0.123211	-0.123393	-3.97491e-05	1	2.99879e-06	4.90475e-09
2	1	0	0	1	19.6051	-0.118211	-0.118425	-3.68399e-05	1	2.99531e-06	4.36276e-09
2	1	0	0	1	19.7051	-0.113211	-0.113417	-3.4026e-05	1	2.99214e-06	3.85912e-09
2	1	0	0	1	19.8051	-0.108211	-0.108319	-2.7508e-05	1	2.98927e-06	2.97963e-09
2	1	0	0	1	19.9051	-0.10321	-0.103397	-2.62804e-05	1	2.98682e-06	2.7173e-09
2	1	0	1	1	20.0053	-0.0982101	-0.0984192	-2.48973e-05	2	2.98458e-06	2.45037e-09
2	1	0	1	1	20.1053	-0.09321	-0.0934462	-2.25957e-05	2	2.98256e-06	2.11148e-09
2	1	0	1	1	20.2053	-0.0882097	-0.0883862	-2.04725e-05	2	2.9808e-06	1.80948e-09
2	1	0	1	1	20.3053	-0.0832095	-0.0834026	-1.65352e-05	2	2.97921e-06	1.37907e-09
2	1	0	1	1	20.4053	-0.0782093	-0.0783935	-1.52828e-05	2	2.97788e-06	1.19807e-09
2	1	0	1	1	20.5053	-0.0732091	-0.0734755	-1.25996e-05	2	2.97697e-06	9.25764e-10
2	1	0	1	1	20.6053	-0.0682089	-0.0684156	-1.09339e-05	2	2.97608e-06	7.4805e-10
2	1	0	1	1	20.7053	-0.0632087	-0.0634054	-7.00722e-06	2	2.9755e-06	4.44295e-10
2	1	0	1	1	20.8053	-0.0582085	-0.0584514	-3.45676e-06	2	2.97522e-06	2.02053e-10
2	1	0	1	1	20.9053	-0.0532083	-0.0534381	1.95018e-06	2	2.9755e-06	-1.04214e-10
2	1	0	1	1	21.0053	-0.0482081	-0.0484205	4.70046e-06	2	2.97628e-06	-2.27599e-10
2	1	0	1	1	21.1053	-0.0432079	-0.0433584	2.68853e-06	2	2.97697e-06	-1.1657e-10
2	1	0	1	1	21.2053	-0.0382077	-0.0383918	5.53773e-06	2	2.97771e-06	-2.12603e-10
2	1	0	1	1	21.3053	-0.0332075	-0.0334484	7.2317e-06	2	2.97867e-06	-2.41889e-10
2	1	0	1	1	21.4053	-0.0282073	-0.0284022	1.1358e-05	2	2.97991e-06	-3.22592e-10
2	1	0	1	1	21.5053	-0.0232071	-0.0234164	1.35024e-05	2	2.9815e-06	-3.16178e-10
2	1	0	1	1	21.6053	-0.0182069	-0.0184286	1.95488e-05	2	2.98349e-06	-3.60256e-10
2	1	0	1	1	21.7053	-0.0132067	-0.0134354	2.57488e-05	2	2.98602e-06	-3.45945e-10
2	1	0	1	1	21.8053	-0.00820648	-0.00839235	3.22421e-05	2	2.98915e-06	-2.70587e-10
2	1	0	1	1	21.9053	-0.00320627	-0.00342991	4.13231e-05	2	2.99316e-06	-1.41735e-10
2	1	0	1	1	22.0053	0.00179393	0.0016025	5.56256e-05	2	2.99845e-06	8.91402e-11
2	1	0	1	1	22.1053	0.00679413	0.00656706	7.31978e-05	2	3.00524e-06	4.80694e-10
2	1	0	1	1	22.2053	0.0117943	0.0116366	9.57405e-05	2	3.01393e-06	1.11409e-09
2	1	0	1	1	22.3053	0.0167945	0.0166117	0.000124656	2	3.02515e-06	2.07076e-09
2	1	0	1	1	22.4053	0.0217947	0.0216569	0.000159375	2	3.03964e-06	3.45156e-09
2	1	0	1	1	22.5053	0.0267949	0.0266681	0.000206762	2	3.05827e-06	5.51395e-09
2	1	0	1	1	22.6053	0.0317951	0.0316199	0.00026564	2	3.08204e-06	8.3995e-09
2	1	0	1	1	22.7053	0.0367953	0.0365601	0.000332711	2	3.11209e-06	1.2164e-08
2	1	0	1	1	22.8053	0.0417955	0.0415999	0.00041343	2	3.14964e-06	1.71987e-08
2	1	0	1	1	22.9053	0.0467957	0.0466588	0.000502404	2	3.19575e-06	2.34416e-08
2	1	0	1	1	23.0053	0.0517959	0.0516648	0.000600732	2	3.25116e-06	3.10367e-08
2	1	0	1	1	23.1053	0.0567961	0.0566378	0.000697864	2	3.31637e-06	3.95255e-08
2	1	0	1	1	23.2053	0.0617963	0.061666	0.000795841	2	3.39145e-06	4.90763e-08
2	1	0	1	1	23.3053	0.0667965	0.0666538	0.000884279	2	3.47588e-06	5.89406e-08
2	1	0	1	1	23.4053	0.0717967	0.0716333	0.000958153	2	3.56843e-06	6.86356e-08
2	1	0	1	1	23.5053	0.0767969	0.0767112	0.00101359	2	3.66739e-06	7.77537e-08
2	1	0	1	1	23.6053	0.0817971	0.0816281	0.00104701	2	3.77082e-06	8.54653e-08
2	1	0	1	1	23.7053	0.0867973	0.0866467	0.00106174	2	3.87666e-06	9.19966e-08
2	1	0	1	1	23.8053	0.0917976	0.0916283	0.00105974	2	3.98314e-06	9.71025e-08
2	1	0	1	1	23.9053	0.0967978	0.0966692	0.00104436	2	4.0887e-06	1.00957e-07
2	1	0	1	1	24.0053	0.101798	0.101626	0.00102059	2	4.19226e-06	1.03719e-07
2	1	0	1	1	24.1053	0.106798	0.106627	0.000987479	2	4.29303e-06	1.05292e-07
2	1	0	1	1	24.2053	0.111798	0.111642	0.000956987	2	4.39058e-06	1.0684e-07
2	1	0	1	1	24.3053	0.116799	0.116601	0.000923331	2	4.48479e-06	1.07661e-07
2	1	0	1	1	24.4053	0.121799	0.121603	0.000888439	2	4.57562e-06	1.08037e-07
2	1	0	1	1	24.5053	0.126799	0.12661	0.000858442	2	4.66324e-06	1.08688e-07
2	1	0	1	1	24.6053	0.131799	0.131654	0.000829567	2	4.74786e-06	1.09216e-07
2	1	0	1	1	24.7053	0.136799	0.136589	0.000799893	2	4.82963e-06	1.09257e-07
2	1	0	1	1	24.8053	0.1418	0.141637	0.000775238	2	4.90871e-06	1.09803e-07
2	1	0	1	1	24.9053	0.1468	0.146593	0.000751176	2	4.98529e-06	1.10117e-07
2	1	0	0	1	25.0055	0.1518	0.151616	0.000731503	2	5.05984e-06	1.10908e-07
2	1	0	0	1	25.1055	0.1568	0.156677	0.000713518	2	5.13233e-06	1.11792e-07
2	1	0	0	1	25.2055	0.1618	0.161651	0.000695409	2	5.20304e-06	1.12413e-07
2	1	0	0	1	25.3055	0.166801	0.166646	0.000680138	2	5.27211e-06	1.13342e-07
2	1	0	0	1	25.4055	0.171801	0.171616	0.000665887	2	5.33969e-06	1.14277e-07
2	1	0	0	1	25.5055	0.176801	0.176605	0.000653678	2	5.40591e-06	1.15443e-07
2	1	0	0	1	25.6055	0.181801	0.181622	0.000640234	2	5.47089e-06	1.16281e-07
2	1	0	0	1	25.7055	0.186801	0.186596	0.000629307	2	5.5347e-06	1.17426e-07
2	1	0	0	1	25.8055	0.191802	0.191646	0.000619277	2	5.59745e-06	1.18682e-07
2	1	0	0	1	25.9055	0.196802	0.196639	0.000611182	2	5.65925e-06	1.20182e-07
2	1	0	0	1	26.0055	0.201802	0.201592	0.000603431	2	5.72021e-06	1.21647e-07
2	1	0	0	1	26.1055	0.206802	0.206641	0.000594995	2	5.78037e-06	1.2295e-07
2	1	0	0	1	26.2055	0.211802	0.211644	0.000587691	2	5.83978e-06	1.24381e-07
2	1	0	0	1	26.3055	0.216803	0.216653	0.000583107	2	5.89854e-06	1.26332e-07
2	1	0	0	1	26.4055	0.221803	0.221647	0.000576472	2	5.95671e-06	1.27773e-07
2	1	0	0	1	26.5055	0.226803	0.226627	0.000572316	2	6.01433e-06	1.29702e-07
2	1	0	0	1	26.6055	0.231803	0.231642	0.000566345	2	6.07151e-06	1.31189e-07
2	1	0	0	1	26.7055	0.236803	0.236616	0.000562316	2	6.12824e-06	1.33053e-07
2	1	0	0	1	26.8055	0.241804	0.241633	0.00055907	2	6.18461e-06	1.35089e-07
2	1	0	0	1	26.9055	0.246804	0.24657	0.000556056	2	6.24067e-06	1.37107e-07
2	1	0	0	1	27.0055	0.251804	0.251653	0.000554064	2	6.29649e-06	1.39432e-07
2	1	0	0	1	27.1055	0.256804	0.256672	0.000553525	2	6.35211e-06	1.42074e-07
2	1	0	0	1	27.2055	0.261804	0.261639	0.000550978	2	6.40755e-06	1.44157e-07
2	1	0	0	1	27.3055	0.266805	0.266623	0.000550753	2	6.4629e-06	1.46844e-07
2	1	0	0	1	27.4055	0.271805	0.271673	0.000550185	2	6.51822e-06	1.49471e-07
2	1	0	0	1	27.5055	0.276805	0.276671	0.000551061	2	6.57356e-06	1.52462e-07
2	1	0	0	1	27.6055	0.281805	0.281679	0.000551677	2	6.62898e-06	1.55396e-07
2	1	0	0	1	27.7055	0.286805	0.286637	0.000553728	2	6.68452e-06	1.58719e-07
2	1	0	0	1	27.8055	0.291806	0.291664	0.000556934	2	6.74026e-06	1.62438e-07
2	1	0	0	1	27.9055	0.296806	0.296623	0.000559501	2	6.79628e-06	1.65961e-07
2	0	0	0	1	27.9951	0.298706	0.298518	0.000442242	2	6.84378e-06	1.32017e-07
2	0	0	0	1	28.0951	0.293706	0.293551	0.000401781	2	6.88544e-06	1.17943e-07
2	0	0	0	1	28.1951	0.288705	0.288531	0.000376023	2	6.9241e-06	1.08495e-07
2	0	0	0	1	28.2951	0.283705	0.283492	0.000359527	2	6.96064e-06	1.01923e-07
2	0	0	0	1	28.3951	0.278705	0.278504	0.000344846	2	6.99551e-06	9.60411e-08
2	0	0	0	1	28.4951	0.273705	0.273552	0.000330899	2	7.02899e-06	9.05181e-08
2	0	0	0	1	28.5951	0.268705	0.268485	0.000319387	2	7.06126e-06	8.57506e-08
2	0	0	0	1	28.6951	0.263704	0.263573	0.000309746	2	7.0925e-06	8.16408e-08
2	0	0	0	1	28.7951	0.258704	0.258523	0.000302057	2	7.12283e-06	7.80886e-08
2	0	0	0	1	28.8951	0.253704	0.253501	0.000293208	2	7.15233e-06	7.43284e-08
2	0	0	0	1	28.9951	0.248704	0.248495	0.000285829	2	7.1811e-06	7.10271e-08
2	0	0	0	1	29.0951	0.243704	0.243537	0.000279149	2	7.20918e-06	6.7983e-08
2	0	0	0	1	29.1951	0.238703	0.238493	0.000274547	2	7.23662e-06	6.54775e-08
2	0	0	0	1	29.2951	0.233703	0.233524	0.000268305	2	7.26346e-06	6.26556e-08
2	0	0	0	1	29.3951	0.228703	0.228528	0.000262564	2	7.28975e-06	6.00034e-08
2	0	0	0	1	29.4951	0.223703	0.223468	0.000258422	2	7.31551e-06	5.77492e-08
2	0	0	0	1	29.5951	0.218703	0.218525	0.000252778	2	7.34077e-06	5.52384e-08
2	0	0	0	1	29.6951	0.213702	0.213537	0.00024779	2	7.36554e-06	5.29124e-08
2	0	0	0	1	29.7951	0.208702	0.208488	0.000242784	2	7.38989e-06	5.06175e-08
2	0	0	0	1	29.8951	0.203702	0.203479	0.000236856	2	7.41373e-06	4.81952e-08
2	0	0	0	1	29.9951	0.198702	0.198496	0.000233966	2	7.43706e-06	4.64414e-08
2	0	0	0	1	30.0951	0.193702	0.193518	0.000228236	2	7.45991e-06	4.41678e-08
2	0	0	0	1	30.1951	0.188701	0.188533	0.000223628	2	7.48232e-06	4.21612e-08
2	0	0	0	1	30.2951	0.183701	0.183431	0.000220199	2	7.5043e-06	4.03913e-08
2	0	0	0	1	30.3951	0.178701	0.178532	0.000214988	2	7.52583e-06	3.83822e-08
2	0	0	0	1	30.4951	0.173701	0.173489	0.000210855	2	7.54692e-06	3.6581e-08
2	0	0	0	1	30.5951	0.168701	0.168581	0.000207043	2	7.56759e-06	3.49034e-08
2	0	0	0	1	30.6951	0.1637	0.163445	0.000201032	2	7.5878e-06	3.28577e-08
2	0	0	0	1	30.7951	0.1587	0.158468	0.000197752	2	7.60753e-06	3.13373e-08
2	0	0	0	1	30.8951	0.1537	0.153513	0.000191716	2	7.62675e-06	2.94309e-08
2	0	0	0	1	30.9951	0.1487	0.148501	0.000186025	2	7.64538e-06	2.76248e-08
2	0	0	1	1	31.0953	0.1437	0.143473	0.000180397	2	7.66352e-06	2.5882e-08
2	0	0	1	1	31.1953	0.138699	0.138416	0.000174688	2	7.68101e-06	2.41795e-08
2	0	0	1	1	31.2953	0.133699	0.133459	0.000167709	2	7.69784e-06	2.23822e-08
2	0	0	1	1	31.3953	0.128699	0.128478	0.000156824	2	7.71389e-06	2.01485e-08
2	0	0	1	1	31.4953	0.123699	0.123462	0.000148289	2	7.72904e-06	1.8308e-08
2	0	0	1	1	31.5953	0.118699	0.118467	0.000137189	2	7.74313e-06	1.62524e-08
2	0	0	1	1	31.6953	0.113698	0.113555	0.000124026	2	7.75594e-06	1.40837e-08
2	0	0	1	1	31.7953	0.108698	0.108517	0.000105878	2	7.76726e-06	1.14896e-08
2	0	0	1	1	31.8953	0.103698	0.103506	8.64758e-05	2	7.7767e-06	8.95075e-09
2	0	0	1	1	31.9953	0.0986978	0.0984809	6.04744e-05	2	7.78386e-06	5.95557e-09
2	0	0	1	1	32.0953	0.0936976	0.0935004	2.88241e-05	2	7.78819e-06	2.69507e-09
2	0	0	1	1	32.1953	0.0886974	0.0885369	-1.18754e-05	2	7.78898e-06	-1.05141e-09
2	0	0	1	1	32.2953	0.0836972	0.0834547	-5.98878e-05	2	7.78538e-06	-4.99792e-09
2	0	0	1	1	32.3953	0.078697	0.0785209	-0.000118031	2	7.77642e-06	-9.26786e-09
2	0	0	1	1	32.4953	0.0736968	0.0735288	-0.000189386	2	7.76096e-06	-1.39253e-08
2	0	0	1	1	32.5953	0.0686966	0.0684508	-0.000271845	2	7.73784e-06	-1.8608e-08
2	0	0	1	1	32.6953	0.0636964	0.0634798	-0.000365395	2	7.70593e-06	-2.31952e-08
2	0	0	1	1	32.7953	0.0586962	0.0585174	-0.00046626	2	7.66422e-06	-2.72843e-08
2	0	0	1	1	32.8953	0.053696	0.0535295	-0.000571131	2	7.61219e-06	-3.05723e-08
2	0	0	1	1	32.9953	0.0486958	0.0484653	-0.000674364	2	7.54972e-06	-3.26833e-08
2	0	0	1	1	33.0953	0.0436956	0.0434721	-0.000764086	2	7.47757e-06	-3.32164e-08
2	0	0	1	1	33.1953	0.0386954	0.0384386	-0.000837667	2	7.39719e-06	-3.21988e-08
2	0	0	1	1	33.2953	0.0336952	0.0334985	-0.000887859	2	7.31057e-06	-2.97419e-08
2	0	0	1	1	33.3953	0.028695	0.0284353	-0.000913734	2	7.22011e-06	-2.59823e-08
2	0	0	1	1	33.4953	0.0236948	0.0234771	-0.0009173	2	7.12823e-06	-2.15355e-08
2	0	0	1	1	33.5953	0.0186946	0.0184829	-0.000899072	2	7.03705e-06	-1.66174e-08
2	0	0	1	1	33.6953	0.0136944	0.0135384	-0.000871852	2	6.94821e-06	-1.18035e-08
2	0	0	1	1	33.7953	0.00869421	0.00849437	-0.000835141	2	6.86264e-06	-7.094e-09
2	0	0	1	1	33.8953	0.003694	0.00347786	-0.000794541	2	6.78103e-06	-2.7633e-09
2	0	0	1	1	33.9953	-0.0013062	-0.00158635	-0.000751849	2	6.70359e-06	1.1927e-09
2	0	0	1	1	34.0953	-0.0063064	-0.00653608	-0.000710536	2	6.63034e-06	4.64412e-09
2	0	0	1	1	34.1953	-0.0113066	-0.0115505	-0.000672997	2	6.56105e-06	7.77343e-09
2	0	0	1	1	34.2953	-0.0163068	-0.0165935	-0.00063742	2	6.49538e-06	1.0577e-08
2	0	0	1	1	34.3953	-0.021307	-0.0215464	-0.000606227	2	6.43299e-06	1.3062e-08
2	0	0	1	1	34.4953	-0.0263072	-0.0266011	-0.000578737	2	6.37357e-06	1.5395e-08
2	0	0	1	1	34.5953	-0.0313074	-0.0315497	-0.000553682	2	6.31681e-06	1.74685e-08
2	0	0	1	1	34.6953	-0.0363076	-0.0365185	-0.000530874	2	6.26243e-06	1.93867e-08
2	0	0	1	1	34.7953	-0.0413078	-0.041535	-0.000510388	2	6.21014e-06	2.1199e-08
2	0	0	1	1	34.8953	-0.046308	-0.0465356	-0.000493346	2	6.15976e-06	2.29582e-08
2	0	0	1	1	34.9953	-0.0513082	-0.051549	-0.000478381	2	6.1111e-06	2.466e-08
2	0	0	1	1	35.0953	-0.0563084	-0.056574	-0.000463232	2	6.06395e-06	2.62069e-08
2	0	0	1	1	35.1953	-0.0613086	-0.0615343	-0.000449645	2	6.01825e-06	2.76686e-08
2	0	0	1	1	35.2953	-0.0663089	-0.0665826	-0.000437017	2	5.97382e-06	2.90977e-08
2	0	0	1	1	35.3953	-0.071309	-0.07158	-0.000427459	2	5.93058e-06	3.05975e-08
2	0	0	1	1	35.4953	-0.0763093	-0.0765541	-0.000415919	2	5.88842e-06	3.18403e-08
2	0	0	1	1	35.5953	-0.0813095	-0.0815357	-0.000404754	2	5.84725e-06	3.30019e-08
2	0	0	1	1	35.6953	-0.0863097	-0.0865501	-0.000397764	2	5.80703e-06	3.44265e-08
2	0	0	1	1	35.7953	-0.0913099	-0.0915655	-0.000389474	2	5.76766e-06	3.56624e-08
2	0	0	1	1	35.8953	-0.0963101	-0.0965598	-0.00038072	2	5.72908e-06	3.67622e-08
2	0	0	0	1	35.9955	-0.10131	-0.101576	-0.000372342	2	5.6912e-06	3.78211e-08
2	0	0	0	1	36.0955	-0.10631	-0.106555	-0.000366898	2	5.65406e-06	3.90947e-08
2	0	0	0	1	36.1955	-0.111311	-0.111539	-0.000361597	2	5.61756e-06	4.03323e-08
2	0	0	0	1	36.2955	-0.116311	-0.116575	-0.000355856	2	5.58167e-06	4.14839e-08
2	0	0	0	1	36.3955	-0.121311	-0.121494	-0.000348752	2	5.54633e-06	4.23712e-08
2	0	0	0	1	36.4955	-0.126311	-0.126574	-0.000344514	2	5.51155e-06	4.36066e-08
2	0	0	0	1	36.5955	-0.131311	-0.13153	-0.000339376	2	5.47722e-06	4.46381e-08
2	0	0	0	1	36.6955	-0.136312	-0.136522	-0.000334762	2	5.4434e-06	4.57024e-08
2	0	0	0	1	36.7955	-0.141312	-0.141489	-0.000331134	2	5.41002e-06	4.68518e-08
2	0	0	0	1	36.8955	-0.146312	-0.146533	-0.000326744	2	5.37702e-06	4.78788e-08
2	0	0	0	1	36.9955	-0.151312	-0.151555	-0.00032209	2	5.34442e-06	4.88143e-08
2	0	0	0	1	37.0955	-0.156313	-0.156502	-0.00031964	2	5.31215e-06	5.00244e-08
2	0	0	0	1	37.1955	-0.161313	-0.161569	-0.000316376	2	5.28022e-06	5.11164e-08
2	0	0	0	1	37.2955	-0.166313	-0.166553	-0.00031444	2	5.24859e-06	5.2371e-08
2	0	0	0	1	37.3955	-0.171313	-0.171584	-0.000312491	2	5.2172e-06	5.36184e-08
2	0	0	0	1	37.4955	-0.176313	-0.176536	-0.000309619	2	5.18606e-06	5.46588e-08
2	0	0	0	1	37.5955	-0.181314	-0.181603	-0.000306701	2	5.1551e-06	5.56978e-08
2	0	0	0	1	37.6955	-0.186314	-0.186577	-0.000304747	2	5.12432e-06	5.68589e-08
2	0	0	0	1	37.7955	-0.191314	-0.191556	-0.000305493	2	5.09369e-06	5.85191e-08
2	0	0	0	1	37.8955	-0.196314	-0.196501	-0.000302723	2	5.06316e-06	5.94854e-08
2	1	0	1	0	37.9849	-0.199214	-0.199397	-0.000185171	2	5.03775e-06	3.69226e-08
2	1	0	1	0	38.0849	-0.194214	-0.194445	-0.000151553	2	5.02144e-06	2.94688e-08
2	1	0	1	0	38.1849	-0.189214	-0.189343	-0.000137675	2	5.00725e-06	2.60677e-08
2	1	0	1	0	38.2849	-0.184214	-0.184405	-0.000124828	2	4.99441e-06	2.30188e-08
2	1	0	1	0	38.3849	-0.179213	-0.179389	-0.000115429	2	4.98262e-06	2.07067e-08
2	1	0	1	0	38.4849	-0.174213	-0.174465	-0.000108057	2	4.97173e-06	1.88523e-08
2	1	0	1	0	38.5849	-0.169213	-0.16938	-0.000101161	2	4.96159e-06	1.71347e-08
2	1	0	1	0	38.6849	-0.164213	-0.164411	-9.37072e-05	2	4.95215e-06	1.54065e-08
2	1	0	1	0	38.7849	-0.159213	-0.159461	-8.53575e-05	2	4.94332e-06	1.36112e-08
2	1	0	1	0	38.8849	-0.154212	-0.154391	-8.31512e-05	2	4.93508e-06	1.28378e-08
2	1	0	1	0	38.9849	-0.149212	-0.149424	-7.63665e-05	2	4.92734e-06	1.1411e-08
2	1	0	1	0	39.0849	-0.144212	-0.144396	-7.26818e-05	2	4.92007e-06	1.04949e-08
2	1	0	1	0	39.1849	-0.139212	-0.139387	-6.78984e-05	2	4.91329e-06	9.46414e-09
2	1	0	1	0	39.2849	-0.134212	-0.134451	-6.30974e-05	2	4.90692e-06	8.48349e-09
2	1	0	1	0	39.3849	-0.129211	-0.129424	-5.90806e-05	2	4.90094e-06	7.64642e-09
2	1	0	1	0	39.4849	-0.124211	-0.12437	-5.63073e-05	2	4.89536e-06	7.00294e-09
2	1	0	1	0	39.5849	-0.119211	-0.119432	-5.29317e-05	2	4.89013e-06	6.32174e-09
2	1	0	1	0	39.6849	-0.114211	-0.114394	-5.02963e-05	2	4.88526e-06	5.75361e-09
2	1	0	1	0	39.7849	-0.109211	-0.109416	-4.57831e-05	2	4.8807e-06	5.0094e-09
2	1	0	1	0	39.8849	-0.10421	-0.104362	-4.26849e-05	2	4.87646e-06	4.45469e-09
2	1	0	1	0	39.9849	-0.0992102	-0.0994274	-4.05352e-05	3	4.8725e-06	4.03031e-09
2	1	0	0	0	40.0851	-0.09421	-0.0944384	-3.68063e-05	3	4.86883e-06	3.47593e-09
2	1	0	0	0	40.1851	-0.0892098	-0.0893679	-3.46142e-05	3	4.86544e-06	3.0934e-09
2	1	0	0	0	40.2851	-0.0842096	-0.0844531	-3.09119e-05	3	4.86232e-06	2.6106e-09
2	1	0	0	0	40.3851	-0.0792094	-0.0794218	-2.94669e-05	3	4.85946e-06	2.34032e-09
2	1	0	0	0	40.4851	-0.0742092	-0.0744498	-2.75486e-05	3	4.85685e-06	2.05099e-09
2	1	0	0	0	40.5851	-0.069209	-0.0694534	-2.52541e-05	3	4.85448e-06	1.75398e-09
2	1	0	0	0	40.6851	-0.0642088	-0.0643701	-2.29154e-05	3	4.85234e-06	1.47507e-09
2	1	0	0	0	40.7851	-0.0592086	-0.0594437	-1.96281e-05	3	4.85044e-06	1.16677e-09
2	1	0	0	0	40.8851	-0.0542084	-0.0544537	-1.84694e-05	3	4.84877e-06	1.00573e-09
2	1	0	0	0	40.9851	-0.0492081	-0.0494383	-1.59169e-05	3	4.84739e-06	7.86905e-10
2	1	0	0	0	41.0851	-0.0442079	-0.0443571	-1.13473e-05	3	4.84623e-06	5.03331e-10
2	1	0	0	0	41.1851	-0.0392077	-0.0394031	-7.7862e-06	3	4.84535e-06	3.06801e-10
2	1	0	0	0	41.2851	-0.0342075	-0.034447	-8.25429e-06	3	4.84476e-06	2.84336e-10
2	1	0	0	0	41.3851	-0.0292073	-0.0293796	-3.13881e-06	3	4.84449e-06	9.22171e-11
2	1	0	0	0	41.4851	-0.0242071	-0.0243483	1.81416e-06	3	4.84463e-06	-4.41718e-11
2	1	0	0	0	41.5851	-0.0192069	-0.0194389	7.92766e-06	3	4.8452e-06	-1.54105e-10
2	1	0	0	0	41.6851	-0.0142067	-0.0144202	1.15452e-05	3	4.84633e-06	-1.66485e-10
2	1	0	0	0	41.7851	-0.00920652	-0.00942598	1.99444e-05	3	4.84814e-06	-1.87996e-10
2	1	0	0	0	41.8851	-0.00420631	-0.00443279	2.94653e-05	3	4.85082e-06	-1.30614e-10
2	1	0	0	0	41.9851	0.000793888	0.000615526	4.35188e-05	3	4.85465e-06	2.67869e-11
2	1	0	0	0	42.0851	0.00579409	0.00562991	5.76535e-05	3	4.85985e-06	3.24584e-10
2	1	0	0	0	42.1851	0.0107943	0.0106305	7.89438e-05	3	4.86687e-06	8.39214e-10
2	1	0	0	0	42.2851	0.0157945	0.0156587	0.000106277	3	4.87624e-06	1.66416e-09
2	1	0	0	0	42.3851	0.0207947	0.0206317	0.000139144	3	4.88864e-06	2.87079e-09
2	1	0	0	0	42.4851	0.0257949	0.025573	0.000182276	3	4.90485e-06	4.66135e-09
2	1	0	0	0	42.5851	0.0307951	0.0306298	0.000233343	3	4.92582e-06	7.14723e-09
2	1	0	0	0	42.6851	0.0357953	0.0356219	0.000298535	3	4.95261e-06	1.06344e-08
2	1	0	0	0	42.7851	0.0407955	0.0405706	0.000372934	3	4.98636e-06	1.51301e-08
2	1	0	0	0	42.8851	0.0457957	0.045603	0.000458774	3	5.0281e-06	2.09214e-08
2	1	0	0	0	42.9851	0.0507959	0.0506046	0.000553011	3	5.07878e-06	2.79849e-08
2	1	0	0	0	43.0851	0.0557961	0.0556317	0.000649518	3	5.13902e-06	3.61338e-08
2	1	0	0	0	43.1851	0.0607963	0.0606525	0.000742747	3	5.20889e-06	4.50494e-08
2	1	0	0	0	43.2851	0.0657965	0.0656669	0.00083254	3	5.28802e-06	5.46703e-08
2	1	0	0	0	43.3851	0.0707967	0.0706166	0.000908864	3	5.37541e-06	6.41809e-08
2	1	0	0	0	43.4851	0.0757969	0.0756278	0.000969854	3	5.46962e-06	7.33479e-08
2	1	0	0	0	43.5851	0.0807971	0.0806231	0.00100883	3	5.56887e-06	8.13351e-08
2	1	0	0	0	43.6851	0.0857973	0.0856163	0.00103089	3	5.67125e-06	8.82608e-08
2	1	0	0	0	43.7851	0.0907975	0.0906095	0.00103492	3	5.77492e-06	9.37731e-08
2	1	0	0	0	43.8851	0.0957977	0.0956059	0.0010249	3	5.87828e-06	9.79866e-08
2	1	0	0	0	43.9851	0.100798	0.100591	0.00100539	3	5.98009e-06	1.01133e-07
2	1	0	0	0	44.0851	0.105798	0.105598	0.000975888	3	6.07948e-06	1.03051e-07
2	1	0	0	0	44.1851	0.110798	0.110667	0.000945817	3	6.17591e-06	1.04671e-07
2	1	0	0	0	44.2851	0.115798	0.115626	0.000913951	3	6.2691e-06	1.05677e-07
2	1	0	0	0	44.3851	0.120799	0.120625	0.000880342	3	6.35899e-06	1.06191e-07
2	1	0	0	0	44.4851	0.125799	0.125625	0.000848485	3	6.44563e-06	1.06591e-07
2	1	0	0	0	44.5851	0.130799	0.130603	0.000819005	3	6.5292e-06	1.06964e-07
2	1	0	0	0	44.6851	0.135799	0.135631	0.000791222	3	6.60986e-06	1.07314e-07
2	1	0	0	0	44.7851	0.1408	0.140599	0.000766084	3	6.68784e-06	1.0771e-07
2	1	0	0	0	44.8851	0.1458	0.145617	0.000741394	3	6.76336e-06	1.0796e-07
2	1	0	1	0	44.9853	0.1508	0.150593	0.000719359	3	6.83675e-06	1.08331e-07
2	1	0	1	0	45.0853	0.1558	0.155646	0.000699161	3	6.90798e-06	1.08822e-07
2	1	0	1	0	45.1853	0.1608	0.160629	0.000680873	3	6.97729e-06	1.09368e-07
2	1	0	1	0	45.2853	0.165801	0.165651	0.000665278	3	7.04489e-06	1.10204e-07
2	1	0	1	0	45.3853	0.170801	0.170609	0.000651376	3	7.11092e-06	1.1113e-07
2	1	0	1	0	45.4853	0.175801	0.175616	0.000639266	3	7.17551e-06	1.12265e-07
2	1	0	1	0	45.5853	0.180801	0.180625	0.000624202	3	7.23881e-06	1.12746e-07
2	1	0	1	0	45.6853	0.185801	0.185651	0.000612968	3	7.30087e-06	1.13798e-07
2	1	0	1	0	45.7853	0.190802	0.190629	0.000601518	3	7.36181e-06	1.14667e-07
2	1	0	1	0	45.8853	0.195802	0.1956	0.000592714	3	7.42175e-06	1.15935e-07
2	1	0	1	0	45.9853	0.200802	0.20065	0.000583036	3	7.48074e-06	1.16986e-07
2	1	0	1	0	46.0853	0.205802	0.20567	0.000574213	3	7.5389e-06	1.18098e-07
2	1	0	1	0	46.1853	0.210802	0.210645	0.000566812	3	7.59626e-06	1.19396e-07
2	1	0	1	0	46.2853	0.215803	0.215612	0.000560287	3	7.65289e-06	1.20804e-07
2	1	0	1	0	46.3853	0.220803	0.220622	0.000554878	3	7.70887e-06	1.22418e-07
2	1	0	1	0	46.4853	0.225803	0.225618	0.000547699	3	7.76423e-06	1.23571e-07
2	1	0	1	0	46.5853	0.230803	0.230638	0.000543665	3	7.81903e-06	1.2539e-07
2	1	0	1	0	46.6853	0.235803	0.235609	0.000538595	3	7.87333e-06	1.26898e-07
2	1	0	1	0	46.7853	0.240804	0.240584	0.000533835	3	7.92715e-06	1.28432e-07
2	1	0	1	0	46.8853	0.245804	0.245637	0.00053036	3	7.98058e-06	1.30276e-07
2	1	0	1	0	46.9853	0.250804	0.25058	0.000525773	3	8.03366e-06	1.31748e-07
2	1	0	1	0	47.0853	0.255804	0.255678	0.000524699	3	8.08644e-06	1.34154e-07
2	1	0	1	0	47.1853	0.260804	0.260661	0.000521765	3	8.13895e-06	1.36004e-07
2	1	0	1	0	47.2853	0.265805	0.265617	0.000519695	3	8.19125e-06	1.3804e-07
2	1	0	1	0	47.3853	0.270805	0.270636	0.000518934	3	8.24341e-06	1.40442e-07
2	1	0	1	0	47.4853	0.275805	0.275647	0.000519419	3	8.29547e-06	1.43176e-07
2	1	0	1	0	47.5853	0.280805	0.280619	0.000519126	3	8.3475e-06	1.45677e-07
2	1	0	1	0	47.6853	0.285805	0.285698	0.000519305	3	8.39957e-06	1.48364e-07
2	1	0	1	0	47.7853	0.290806	0.290609	0.000520781	3	8.4517e-06	1.51344e-07
2	1	0	1	0	47.8853	0.295806	0.295656	0.000521523	3	8.504e-06	1.54191e-07
2	0	0	1	0	47.9749	0.299706	0.299476	0.000422356	3	8.55039e-06	1.26486e-07
2	0	0	1	0	48.0749	0.294706	0.294546	0.000377	3	8.58959e-06	1.11044e-07
2	0	0	1	0	48.1749	0.289706	0.289522	0.000354915	3	8.62582e-06	1.02756e-07
2	0	0	1	0	48.2749	0.284705	0.28454	0.000335863	3	8.66012e-06	9.55664e-08
2	0	0	1	0	48.3749	0.279705	0.279495	0.000324047	3	8.69291e-06	9.05696e-08
2	0	0	1	0	48.4749	0.274705	0.274543	0.000312389	3	8.72446e-06	8.57642e-08
2	0	0	1	0	48.5749	0.269705	0.269565	0.000300817	3	8.75493e-06	8.10898e-08
2	0	0	1	0	48.6749	0.264705	0.264476	0.000294161	3	8.78446e-06	7.77987e-08
2	0	0	1	0	48.7749	0.259704	0.259468	0.000284768	3	8.81317e-06	7.38882e-08
2	0	0	1	0	48.8749	0.254704	0.254483	0.000279209	3	8.84109e-06	7.10541e-08
2	0	0	1	0	48.9749	0.249704	0.249528	0.000270766	3	8.86835e-06	6.75637e-08
2	0	0	1	0	49.0749	0.244704	0.244508	0.000265724	3	8.89499e-06	6.49716e-08
2	0	0	1	0	49.1749	0.239703	0.239462	0.000260296	3	8.92102e-06	6.23309e-08
2	0	0	1	0	49.2749	0.234703	0.234522	0.000254969	3	8.94653e-06	5.97959e-08
2	0	0	1	0	49.3749	0.229703	0.229509	0.000249417	3	8.97149e-06	5.72435e-08
2	0	0	1	0	49.4749	0.224703	0.224501	0.000243173	3	8.99596e-06	5.45925e-08
2	0	0	1	0	49.5749	0.219703	0.219507	0.000240723	3	9.01994e-06	5.28403e-08
2	0	0	1	0	49.6749	0.214702	0.214514	0.000235371	3	9.04345e-06	5.04902e-08
2	0	0	1	0	49.7749	0.209702	0.209487	0.000231527	3	9.06652e-06	4.85018e-08
2	0	0	1	0	49.8749	0.204702	0.204468	0.000225993	3	9.08916e-06	4.62083e-08
2	0	0	1	0	49.9749	0.199702	0.199497	0.000223273	3	9.11134e-06	4.45422e-08
2	0	0	1	0	50.0749	0.194702	0.194529	0.000217684	3	9.13311e-06	4.23458e-08
2	0	0	1	0	50.1749	0.189701	0.189498	0.000213236	3	9.15445e-06	4.04077e-08
2	0	0	1	0	50.2749	0.184701	0.184517	0.000208682	3	9.17538e-06	3.85055e-08
2	0	0	1	0	50.3749	0.179701	0.179532	0.00020504	3	9.19588e-06	3.68111e-08
2	0	0	1	0	50.4749	0.174701	0.17441	0.000201694	3	9.21595e-06	3.51775e-08
2	0	0	1	0	50.5749	0.169701	0.169478	0.000196853	3	9.23557e-06	3.33623e-08
2	0	0	1	0	50.6749	0.1647	0.164514	0.000191135	3	9.25476e-06	3.14443e-08
2	0	0	1	0	50.7749	0.1597	0.159539	0.000186913	3	9.27349e-06	2.98199e-08
2	0	0	1	0	50.8749	0.1547	0.15454	0.000182439	3	9.29173e-06	2.81941e-08
2	0	0	1	0	50.9749	0.1497	0.149464	0.000178016	3	9.30943e-06	2.6607e-08
2	0	0	0	0	51.0751	0.1447	0.144514	0.000169447	3	9.32666e-06	2.44874e-08
2	0	0	0	0	51.1751	0.139699	0.139482	0.000164137	3	9.34326e-06	2.28942e-08
2	0	0	0	0	51.2751	0.134699	0.134475	0.000157465	3	9.35919e-06	2.11752e-08
2	0	0	0	0	51.3751	0.129699	0.12948	0.00014931	3	9.37438e-06	1.93327e-08
2	0	0	0	0	51.4751	0.124699	0.124511	0.000141472	3	9.3887e-06	1.76149e-08
2	0	0	0	0	51.5751	0.119699	0.119446	0.000129678	3	9.40205e-06	1.54895e-08
2	0	0	0	0	51.6751	0.114698	0.114467	0.00011846	3	9.4142e-06	1.35597e-08
2	0	0	0	0	51.7751	0.109698	0.109516	0.000101737	3	9.42492e-06	1.11418e-08
2	0	0	0	0	51.8751	0.104698	0.104441	8.28193e-05	3	9.43391e-06	8.64973e-09
2	0	0	0	0	51.9751	0.0996979	0.0994658	5.82523e-05	3	9.44076e-06	5.79411e-09
2	0	0	0	0	52.0751	0.0946977	0.094516	2.95872e-05	3	9.44497e-06	2.79647e-09
2	0	0	0	0	52.1751	0.0896975	0.0894995	-8.31435e-06	3	9.44589e-06	-7.4413e-10
2	0	0	0	0	52.2751	0.0846973	0.0844862	-5.28205e-05	3	9.44274e-06	-4.4626e-09
2	0	0	0	0	52.3751	0.0796971	0.0794845	-0.000107729	3	9.43458e-06	-8.56278e-09
2	0	0	0	0	52.4751	0.0746969	0.0745221	-0.000173031	3	9.42037e-06	-1.28946e-08
2	0	0	0	0	52.5751	0.0696967	0.0694801	-0.000251347	3	9.39896e-06	-1.74637e-08
2	0	0	0	0	52.6751	0.0646964	0.0644435	-0.000340565	3	9.36922e-06	-2.19472e-08
2	0	0	0	0	52.7751	0.0596963	0.0594885	-0.000437656	3	9.33014e-06	-2.60355e-08
2	0	0	0	0	52.8751	0.0546961	0.0545165	-0.000539551	3	9.28103e-06	-2.94144e-08
2	0	0	0	0	52.9751	0.0496959	0.0495053	-0.000641115	3	9.22166e-06	-3.17386e-08
2	0	0	0	0	53.0751	0.0446957	0.0444803	-0.000736175	3	9.15243e-06	-3.27453e-08
2	0	0	0	0	53.1751	0.0396955	0.0394161	-0.00081427	3	9.07455e-06	-3.20953e-08
2	0	0	0	0	53.2751	0.0346953	0.0345172	-0.000871584	3	8.98977e-06	-3.00847e-08
2	0	0	0	0	53.3751	0.0296951	0.0295209	-0.000908825	3	8.90033e-06	-2.68293e-08
2	0	0	0	0	53.4751	0.0246949	0.024481	-0.000920066	3	8.8086e-06	-2.25242e-08
2	0	0	0	0	53.5751	0.0196946	0.0195006	-0.000910823	3	8.71675e-06	-1.77616e-08
2	0	0	0	0	53.6751	0.0146944	0.0145021	-0.000885007	3	8.6266e-06	-1.28345e-08
2	0	0	0	0	53.7751	0.00969425	0.00944424	-0.000851458	3	8.5394e-06	-8.04137e-09
2	0	0	0	0	53.8751	0.00469405	0.00447968	-0.000812014	3	8.45597e-06	-3.63756e-09
2	0	0	0	0	53.9751	-0.000306156	-0.000505026	-0.000771957	3	8.37663e-06	3.89858e-10
2	0	0	0	0	54.0751	-0.00530636	-0.0055809	-0.000730198	3	8.30131e-06	4.07516e-09
2	0	0	0	0	54.1751	-0.0103066	-0.0105486	-0.000690159	3	8.23003e-06	7.28025e-09
2	0	0	0	0	54.2751	-0.0153068	-0.0155927	-0.000657479	3	8.16244e-06	1.02519e-08
2	0	0	0	0	54.3751	-0.020307	-0.0205955	-0.00062473	3	8.09823e-06	1.28666e-08
2	0	0	0	0	54.4751	-0.0253072	-0.0255621	-0.000595152	3	8.03706e-06	1.52134e-08
2	0	0	0	0	54.5751	-0.0303074	-0.0305384	-0.000569613	3	7.97861e-06	1.73951e-08
2	0	0	0	0	54.6751	-0.0353076	-0.0355273	-0.000546602	3	7.9226e-06	1.94193e-08
2	0	0	0	0	54.7751	-0.0403078	-0.0405544	-0.000524945	3	7.86879e-06	2.12888e-08
2	0	0	0	0	54.8751	-0.045308	-0.0455391	-0.000508171	3	7.81692e-06	2.31417e-08
2	0	0	0	0	54.9751	-0.0503082	-0.0505249	-0.000490835	3	7.76682e-06	2.47994e-08
2	0	0	0	0	55.0751	-0.0553084	-0.0555828	-0.000474367	3	7.71826e-06	2.63666e-08
2	0	0	0	0	55.1751	-0.0603086	-0.0605441	-0.000463034	3	7.67119e-06	2.8034e-08
2	0	0	0	0	55.2751	-0.0653088	-0.0655914	-0.000448778	3	7.62544e-06	2.94359e-08
2	0	0	0	0	55.3751	-0.070309	-0.0705708	-0.000436651	3	7.58089e-06	3.08148e-08
2	0	0	0	0	55.4751	-0.0753092	-0.0755364	-0.00042713	3	7.53747e-06	3.22639e-08
2	0	0	0	0	55.5751	-0.0803094	-0.0805434	-0.000416772	3	7.49507e-06	3.35682e-08
2	0	0	0	0	55.6751	-0.0853096	-0.0855132	-0.000407741	3	7.45364e-06	3.48672e-08
2	0	0	0	0	55.7751	-0.0903098	-0.0905584	-0.000400182	3	7.41308e-06	3.62399e-08
2	0	0	0	0	55.8751	-0.09531	-0.0955145	-0.000393219	3	7.37335e-06	3.75581e-08
2	0	0	1	0	55.9753	-0.10031	-0.100539	-0.000384452	3	7.33433e-06	3.86526e-08
2	0	0	1	0	56.0753	-0.10531	-0.10557	-0.00037688	3	7.29609e-06	3.97871e-08
2	0	0	1	0	56.1753	-0.110311	-0.110526	-0.000370526	3	7.25852e-06	4.09527e-08
2	0	0	1	0	56.2753	-0.115311	-0.115578	-0.00036528	3	7.22157e-06	4.22185e-08
2	0	0	1	0	56.3753	-0.120311	-0.120531	-0.000358628	3	7.18521e-06	4.32259e-08
2	0	0	1	0	56.4753	-0.125311	-0.125522	-0.000353837	3	7.1494e-06	4.44145e-08
2	0	0	1	0	56.5753	-0.130311	-0.130536	-0.000348429	3	7.1141e-06	4.54824e-08
2	0	0	1	0	56.6753	-0.135312	-0.135538	-0.000345297	3	7.0793e-06	4.6801e-08
2	0	0	1	0	56.7753	-0.140312	-0.140511	-0.000340559	3	7.04496e-06	4.78525e-08
2	0	0	1	0	56.8753	-0.145312	-0.145516	-0.000335257	3	7.01104e-06	4.87853e-08
2	0	0	1	0	56.9753	-0.150312	-0.150528	-0.000331125	3	6.97752e-06	4.98434e-08
2	0	0	1	0	57.0753	-0.155312	-0.155557	-0.000329	3	6.94436e-06	5.11782e-08
2	0	0	1	0	57.1753	-0.160313	-0.160555	-0.000324001	3	6.91157e-06	5.20201e-08
2	0	0	1	0	57.2753	-0.165313	-0.165533	-0.000320816	3	6.87911e-06	5.31055e-08
2	0	0	1	0	57.3753	-0.170313	-0.170512	-0.000317027	3	6.8469e-06	5.4057e-08
2	0	0	1	0	57.4753	-0.175313	-0.175586	-0.000317944	3	6.81497e-06	5.58264e-08
2	0	0	1	0	57.5753	-0.180313	-0.18053	-0.000316607	3	6.78326e-06	5.71571e-08
2	0	0	1	0	57.6753	-0.185314	-0.185545	-0.000312122	3	6.75175e-06	5.79125e-08
2	0	0	1	0	57.7753	-0.190314	-0.190539	-0.000310774	3	6.72039e-06	5.92146e-08
2	0	0	1	0	57.8753	-0.195314	-0.195587	-0.000310131	3	6.68915e-06	6.06577e-08
2	1	0	1	1	57.9692	-0.199989	-0.200295	-0.000306307	3	6.65993e-06	6.13518e-08
2	1	0	0	1	58.0647	-0.195214	-0.195447	-0.000163051	3	6.64326e-06	3.18678e-08
2	1	0	0	1	58.1647	-0.190214	-0.190414	-0.000145699	3	6.62821e-06	2.77431e-08
2	1	0	0	1	58.2647	-0.185214	-0.185392	-0.000134165	3	6.61458e-06	2.48731e-08
2	1	0	0	1	58.3647	-0.180213	-0.180381	-0.000121452	3	6.60203e-06	2.19076e-08
2	1	0	0	1	58.4647	-0.175213	-0.175403	-0.000115496	3	6.59039e-06	2.02583e-08
2	1	0	0	1	58.5647	-0.170213	-0.170411	-0.000107266	3	6.57951e-06	1.82793e-08
2	1	0	0	1	58.6647	-0.165213	-0.165397	-0.000102477	3	6.56936e-06	1.69494e-08
2	1	0	0	1	58.7647	-0.160213	-0.16048	-9.50479e-05	3	6.55981e-06	1.52533e-08
2	1	0	0	1	58.8647	-0.155212	-0.155422	-8.96657e-05	3	6.55085e-06	1.3936e-08
2	1	0	0	1	58.9647	-0.150212	-0.150397	-8.52745e-05	3	6.54245e-06	1.2825e-08
2	1	0	0	1	59.0647	-0.145212	-0.145391	-8.16569e-05	3	6.53451e-06	1.18722e-08
2	1	0	0	1	59.1647	-0.140212	-0.140444	-7.513e-05	3	6.52705e-06	1.05515e-08
2	1	0	0	1	59.2647	-0.135212	-0.135452	-7.03519e-05	3	6.52002e-06	9.52928e-09
2	1	0	0	1	59.3647	-0.130211	-0.130433	-6.75893e-05	3	6.5134e-06	8.81587e-09
2	1	0	0	1	59.4647	-0.125211	-0.125427	-6.28801e-05	3	6.50719e-06	7.88686e-09
2	1	0	0	1	59.5647	-0.120211	-0.120324	-5.93526e-05	3	6.50134e-06	7.14151e-09
2	1	0	0	1	59.6647	-0.115211	-0.115426	-5.53235e-05	3	6.49584e-06	6.38575e-09
2	1	0	0	1	59.7647	-0.110211	-0.110401	-5.26209e-05	3	6.49066e-06	5.80938e-09
2	1	0	0	1	59.8647	-0.10521	-0.105441	-5.15822e-05	3	6.4858e-06	5.43891e-09
2	1	0	0	1	59.9647	-0.10021	-0.10039	-4.77756e-05	3	6.48126e-06	4.7962e-09
2	1	0	1	1	60.0649	-0.09521	-0.0954265	-4.32731e-05	3	6.47697e-06	4.1294e-09
2	1	0	1	1	60.1649	-0.0902098	-0.0903739	-4.23298e-05	3	6.473e-06	3.82551e-09
2	1	0	1	1	60.2649	-0.0852096	-0.0854147	-3.92369e-05	3	6.46929e-06	3.3514e-09
2	1	0	1	1	60.3649	-0.0802094	-0.080431	-3.69247e-05	3	6.46584e-06	2.96989e-09
2	1	0	1	1	60.4649	-0.0752092	-0.0754474	-3.36692e-05	3	6.46264e-06	2.54025e-09
2	1	0	1	1	60.5649	-0.070209	-0.0704012	-3.07017e-05	3	6.4597e-06	2.16143e-09
2	1	0	1	1	60.5832	-0.0692839	-0.0693336	-1.72258e-05	3	6.45919e-06	1.19433e-09