File: AutoAnalysis Examples/EC/C003B-10ppb-B_C01.mpt
EC-Lab ASCII FILE
Nb header lines : 59

Cyclic Voltammetry

Run on channel : 1 (SN 22398)
User :
CE vs. WE compliance from -10 V to 10 V
Electrode connection : standard
Ewe ctrl range : min = -1.00 V, max = 1.00 V
Safety Limits :
	Ewe min = -2.00 V
	Ewe max = 2.00 V
	|I| = 50.000 mA
	for t > 10 ms
Acquisition started on : 11/21/2018 11:15:02
Technique started on : 11/21/2018 11:15:02
Saved on :
	File : C003B-10ppb-B_C01.mpr
	Directory : \\ECCOMPUTER\Users\Lab User\Google Drive\Electrochemical Data\EC-Lab\Data\FREDsense\Tim\2018.11.21 - EC comparison to High Throughput\
	Host : 172.16.1.30
Device : SP-50 (SN 0301030103010301)
Address : USB
EC-Lab for windows v11.02 (software)
Internet server v11.02 (firmware)
Command interpretor v11.02 (firmware)
Electrode material : Au/Pd
Initial state :
Electrolyte : NaCl (0.2M)
Comments : Fe(CN)63-/Fe(CN)64- 5.10-3 M
Reference electrode : SCE Saturated Calomel Electrode (0.241 V)
Electrode surface area : 0.001 cm²
Characteristic mass : 0.001 g
Equivalent Weight : 0.000 g/eq.
Density : 0.000 g/cm3
Cycle Definition : Charge/Discharge alternance
Ei (V)              -0.100
vs.                 Ref
dE/dt               50.000
dE/dt unit          mV/s
E1 (V)              0.300
vs.                 Ref
Step percent        50
N                   10
E range min (V)     -1.000
E range max (V)     1.000
I Range             Auto
I Range min         Unset
I Range max         Unset
I Range init        Unset
Bandwidth           5
E2 (V)              -0.200
vs.                 Ref
nc cycles           2
Reverse Scan        1
Ef (V)              0.000
vs.                 Eoc

mode	ox/red	error	control changes	counter inc.	time/s	control/V	Ewe/V	<I>/mA	cycle number	(Q-Qo)/C	P/W
2	1	0	1	0	0.000000000000000E+000	-0.0984851	-0.0987203	-0.00010294	1	0.0000000E+000	1.01623e-08
2	1	0	0	0	0.111	-0.0929349	-0.0930913	-7.68384e-06	1	1.90833e-09	7.15298e-10
2	1	0	1	0	0.2265	-0.0871597	-0.0873589	3.69725e-05	1	6.61513e-09	-3.22988e-09
2	1	0	1	0	0.3265	-0.0821595	-0.0823435	4.29624e-05	1	1.09435e-08	-3.53767e-09
2	1	0	1	0	0.4265	-0.0771593	-0.0773641	4.602e-05	1	1.56952e-08	-3.56029e-09
2	1	0	1	0	0.5265	-0.0721591	-0.0724048	4.98177e-05	1	2.07748e-08	-3.60704e-09
2	1	0	1	0	0.6265	-0.0671589	-0.0673236	5.219e-05	1	2.60959e-08	-3.51362e-09
2	1	0	1	0	0.7265	-0.0621587	-0.0623803	5.50816e-05	1	3.16612e-08	-3.43601e-09
2	1	0	1	0	0.8265	-0.0571585	-0.05735	5.60796e-05	1	3.74222e-08	-3.21616e-09
2	1	0	1	0	0.9265	-0.0521583	-0.0523133	6.10591e-05	1	4.34059e-08	-3.1942e-09
2	1	0	1	0	1.0265	-0.0471581	-0.0473647	6.12799e-05	1	4.9597e-08	-2.9025e-09
2	1	0	1	0	1.1265	-0.0421579	-0.0424118	6.17939e-05	1	5.59804e-08	-2.62079e-09
2	1	0	1	0	1.2265	-0.0371577	-0.0373687	6.52914e-05	1	6.26293e-08	-2.43986e-09
2	1	0	1	0	1.3265	-0.0321575	-0.032348	6.65437e-05	1	6.95209e-08	-2.15256e-09
2	1	0	1	0	1.4265	-0.0271573	-0.0273368	7.15356e-05	1	7.67284e-08	-1.95555e-09
2	1	0	1	0	1.5265	-0.022157	-0.0223457	7.50401e-05	1	8.43314e-08	-1.67682e-09
2	1	0	1	0	1.6265	-0.0171568	-0.0173059	8.18973e-05	1	9.24064e-08	-1.4173e-09
2	1	0	1	0	1.7265	-0.0121566	-0.0123795	8.90459e-05	1	1.01088e-07	-1.10234e-09
2	1	0	1	0	1.8265	-0.00715643	-0.0073969	9.63004e-05	1	1.10539e-07	-7.12324e-10
2	1	0	1	0	1.9265	-0.00215623	-0.00232102	0.000108255	1	1.21027e-07	-2.51263e-10
2	1	0	1	0	2.0265	0.00284397	0.00267217	0.000123853	1	1.32935e-07	3.30955e-10
2	1	0	1	0	2.1265	0.00784417	0.00763143	0.000145454	1	1.46616e-07	1.11002e-09
2	1	0	1	0	2.2265	0.0128444	0.0126744	0.000173289	1	1.62685e-07	2.19634e-09
2	1	0	1	0	2.3265	0.0178446	0.017709	0.000207145	1	1.81901e-07	3.66833e-09
2	1	0	1	0	2.4265	0.0228448	0.0226237	0.000253552	1	2.05189e-07	5.73629e-09
2	1	0	1	0	2.5265	0.027845	0.0276646	0.000312894	1	2.33738e-07	8.65609e-09
2	1	0	1	0	2.6265	0.0328452	0.0326864	0.000385482	1	2.68823e-07	1.26e-08
2	1	0	1	0	2.7265	0.0378454	0.0376881	0.000473747	1	3.1193e-07	1.78546e-08
2	1	0	1	0	2.8265	0.0428456	0.0426304	0.000577426	1	3.64567e-07	2.46159e-08
2	1	0	1	0	2.9265	0.0478458	0.0476543	0.000689983	1	4.2806e-07	3.28806e-08
2	1	0	1	0	3.0265	0.052846	0.0527259	0.00081433	1	5.03554e-07	4.29363e-08
2	1	0	1	0	3.1265	0.0578462	0.0576545	0.000937926	1	5.91457e-07	5.40756e-08
2	1	0	1	0	3.2265	0.0628464	0.0626582	0.00105718	1	6.91597e-07	6.62413e-08
2	1	0	1	0	3.3265	0.0678466	0.0677288	0.0011637	1	8.03094e-07	7.88163e-08
2	1	0	1	0	3.4265	0.0728468	0.0726669	0.00125038	1	9.24285e-07	9.08614e-08
2	1	0	1	0	3.5265	0.077847	0.0776452	0.00131482	1	1.05307e-06	1.02089e-07
2	1	0	1	0	3.6265	0.0828472	0.0827105	0.001355	1	1.18703e-06	1.12073e-07
2	1	0	1	0	3.7265	0.0878474	0.087692	0.00137335	1	1.32378e-06	1.20432e-07
2	1	0	1	0	3.8265	0.0928476	0.0926364	0.00137003	1	1.46124e-06	1.26915e-07
2	1	0	1	0	3.9265	0.0978478	0.0976869	0.00135163	1	1.5976e-06	1.32037e-07
2	1	0	1	0	4.0265	0.102848	0.102672	0.00132183	1	1.73161e-06	1.35714e-07
2	1	0	1	0	4.1265	0.107848	0.107661	0.00128801	1	1.86243e-06	1.38668e-07
2	1	0	1	0	4.2265	0.112848	0.112623	0.00124966	1	1.98954e-06	1.40741e-07
2	1	0	1	0	4.3265	0.117849	0.117651	0.00120862	1	2.11278e-06	1.42196e-07
2	1	0	1	0	4.4265	0.122849	0.122706	0.00117001	1	2.23207e-06	1.43567e-07
2	1	0	1	0	4.5265	0.127849	0.127633	0.00113426	1	2.34755e-06	1.44769e-07
2	1	0	1	0	4.6265	0.132849	0.132677	0.00109992	1	2.45942e-06	1.45934e-07
2	1	0	1	0	4.7265	0.137849	0.137684	0.00106518	1	2.56792e-06	1.46658e-07
2	1	0	1	0	4.8265	0.14285	0.142682	0.00103679	1	2.67332e-06	1.47931e-07
2	1	0	0	0	4.9267	0.14785	0.147658	0.00100845	1	2.77603e-06	1.48905e-07
2	1	0	0	0	5.0267	0.15285	0.152701	0.000987578	1	2.87593e-06	1.50804e-07
2	1	0	0	0	5.1267	0.15785	0.157697	0.000960497	1	2.97346e-06	1.51468e-07
2	1	0	0	0	5.2267	0.16285	0.162667	0.000939903	1	3.0688e-06	1.52891e-07
2	1	0	0	0	5.3267	0.167851	0.167661	0.000922219	1	3.16216e-06	1.54621e-07
2	1	0	0	0	5.4267	0.172851	0.172662	0.000905116	1	3.25368e-06	1.56279e-07
2	1	0	0	0	5.5267	0.177851	0.177671	0.000888086	1	3.34354e-06	1.57787e-07
2	1	0	0	0	5.6267	0.182851	0.182666	0.000873047	1	3.4319e-06	1.59476e-07
2	1	0	0	0	5.7267	0.187851	0.187676	0.000860132	1	3.51886e-06	1.61426e-07
2	1	0	0	0	5.8267	0.192852	0.192675	0.00084947	1	3.60456e-06	1.63672e-07
2	1	0	0	0	5.9267	0.197852	0.197687	0.000837383	1	3.6891e-06	1.6554e-07
2	1	0	0	0	6.0267	0.202852	0.202631	0.000828102	1	3.77261e-06	1.67799e-07
2	1	0	0	0	6.1267	0.207852	0.207644	0.000818283	1	3.85518e-06	1.69912e-07
2	1	0	0	0	6.2267	0.212852	0.212739	0.00080978	1	3.93688e-06	1.72272e-07
2	1	0	0	0	6.3267	0.217853	0.217694	0.000802816	1	4.01778e-06	1.74768e-07
2	1	0	0	0	6.4267	0.222853	0.222674	0.000794783	1	4.09797e-06	1.76978e-07
2	1	0	0	0	6.5267	0.227853	0.227717	0.000791056	1	4.1775e-06	1.80137e-07
2	1	0	0	0	6.6267	0.232853	0.232675	0.000784105	1	4.25646e-06	1.82441e-07
2	1	0	0	0	6.7267	0.237853	0.237671	0.000778558	1	4.33486e-06	1.85041e-07
2	1	0	0	0	6.8267	0.242854	0.242683	0.00077443	1	4.41278e-06	1.87941e-07
2	1	0	0	0	6.9267	0.247854	0.247693	0.000770484	1	4.49027e-06	1.90844e-07
2	1	0	0	0	7.0267	0.252854	0.252643	0.000767125	1	4.56738e-06	1.93809e-07
2	1	0	0	0	7.1267	0.257854	0.257683	0.000762968	1	4.64419e-06	1.96604e-07
2	1	0	0	0	7.2267	0.262854	0.262775	0.000761269	1	4.72068e-06	2.00042e-07
2	1	0	0	0	7.3267	0.267855	0.267746	0.000759524	1	4.79692e-06	2.03359e-07
2	1	0	0	0	7.4267	0.272855	0.27263	0.000757605	1	4.87296e-06	2.06546e-07
2	1	0	0	0	7.5267	0.277855	0.277721	0.000756397	1	4.94881e-06	2.10068e-07
2	1	0	0	0	7.6267	0.282855	0.282701	0.000754029	1	5.02455e-06	2.13165e-07
2	1	0	0	0	7.7267	0.287855	0.287643	0.000753525	1	5.10017e-06	2.16746e-07
2	1	0	0	0	7.8267	0.292856	0.292663	0.000752833	1	5.17573e-06	2.20326e-07
2	1	0	0	0	7.9267	0.297856	0.297658	0.000752464	1	5.25126e-06	2.23977e-07
2	0	0	1	0	8.0153	0.297706	0.297526	0.000625438	1	5.31295e-06	1.86084e-07
2	0	0	1	0	8.1153	0.292706	0.292457	0.000580432	1	5.37298e-06	1.69752e-07
2	0	0	1	0	8.2153	0.287705	0.287532	0.00054886	1	5.42935e-06	1.57815e-07
2	0	0	1	0	8.3153	0.282705	0.282507	0.000528527	1	5.48305e-06	1.49312e-07
2	0	0	1	0	8.4153	0.277705	0.277548	0.000506634	1	5.53455e-06	1.40615e-07
2	0	0	1	0	8.5153	0.272705	0.272481	0.000489067	1	5.58424e-06	1.33262e-07
2	0	0	1	0	8.6153	0.267705	0.267506	0.000473302	1	5.63238e-06	1.26611e-07
2	0	0	1	0	8.7153	0.262704	0.262544	0.000463571	1	5.67914e-06	1.21708e-07
2	0	0	1	0	8.8153	0.257704	0.257491	0.000450143	1	5.72468e-06	1.15908e-07
2	0	0	1	0	8.9153	0.252704	0.252455	0.000439497	1	5.76907e-06	1.10953e-07
2	0	0	1	0	9.0153	0.247704	0.247452	0.000431084	1	5.81249e-06	1.06672e-07
2	0	0	1	0	9.1153	0.242704	0.242499	0.000421195	1	5.85498e-06	1.02139e-07
2	0	0	1	0	9.2153	0.237703	0.237495	0.000413614	1	5.8966e-06	9.82313e-08
2	0	0	1	0	9.3153	0.232703	0.232473	0.000406631	1	5.9374e-06	9.45309e-08
2	0	0	1	0	9.4153	0.227703	0.227513	0.000397157	1	5.97744e-06	9.03582e-08
2	0	0	1	0	9.5153	0.222703	0.222435	0.000391084	1	6.01675e-06	8.69906e-08
2	0	0	1	0	9.6153	0.217703	0.217432	0.000384514	1	6.05537e-06	8.36058e-08
2	0	0	1	0	9.7153	0.212702	0.212499	0.000377588	1	6.09332e-06	8.02373e-08
2	0	0	1	0	9.8153	0.207702	0.207461	0.000370625	1	6.13061e-06	7.68902e-08
2	0	0	1	0	9.9153	0.202702	0.202444	0.000364042	1	6.16727e-06	7.36981e-08
2	0	0	1	0	10.0153	0.197702	0.197473	0.000359366	1	6.20332e-06	7.09652e-08
2	0	0	1	0	10.1153	0.192702	0.192464	0.000350573	1	6.23875e-06	6.74727e-08
2	0	0	1	0	10.2153	0.187701	0.187471	0.000347991	1	6.27355e-06	6.52381e-08
2	0	0	1	0	10.3153	0.182701	0.182458	0.00034146	1	6.30777e-06	6.2302e-08
2	0	0	1	0	10.4153	0.177701	0.177478	0.000334283	1	6.34136e-06	5.9328e-08
2	0	0	1	0	10.5153	0.172701	0.172485	0.00032794	1	6.37434e-06	5.65648e-08
2	0	0	1	0	10.6153	0.167701	0.167457	0.000321968	1	6.40669e-06	5.39158e-08
2	0	0	1	0	10.7153	0.1627	0.162492	0.000316635	1	6.43842e-06	5.14508e-08
2	0	0	1	0	10.8153	0.1577	0.157502	0.000307466	1	6.46954e-06	4.84266e-08
2	0	0	1	0	10.9153	0.1527	0.152497	0.000299996	1	6.49992e-06	4.57486e-08
2	0	0	1	0	11.0153	0.1477	0.147511	0.000292605	1	6.52957e-06	4.31624e-08
2	0	0	0	0	11.1155	0.1427	0.142454	0.000286292	1	6.55845e-06	4.07834e-08
2	0	0	0	0	11.2155	0.137699	0.137462	0.000275333	1	6.58638e-06	3.78478e-08
2	0	0	0	0	11.3155	0.132699	0.132428	0.000266168	1	6.61334e-06	3.52481e-08
2	0	0	0	0	11.4155	0.127699	0.127451	0.000254361	1	6.63926e-06	3.24186e-08
2	0	0	0	0	11.5155	0.122699	0.122463	0.000243531	1	6.66403e-06	2.98236e-08
2	0	0	0	0	11.6155	0.117699	0.117476	0.000228847	1	6.68757e-06	2.68841e-08
2	0	0	0	0	11.7155	0.112698	0.112449	0.000207133	1	6.7093e-06	2.32919e-08
2	0	0	0	0	11.8155	0.107698	0.107478	0.000185099	1	6.72887e-06	1.98941e-08
2	0	0	0	0	11.9155	0.102698	0.102507	0.000158287	1	6.74596e-06	1.62255e-08
2	0	0	0	0	12.0155	0.0976978	0.0974547	0.000125259	1	6.76008e-06	1.22071e-08
2	0	0	0	0	12.1155	0.0926976	0.0925071	8.55714e-05	1	6.7706e-06	7.91596e-09
2	0	0	0	0	12.2155	0.0876974	0.0874514	3.64179e-05	1	6.77671e-06	3.18479e-09
2	0	0	0	0	12.3155	0.0826972	0.0824815	-2.25427e-05	1	6.77739e-06	-1.85935e-09
2	0	0	0	0	12.4155	0.077697	0.0774979	-9.43431e-05	1	6.77151e-06	-7.31139e-09
2	0	0	0	0	12.5155	0.0726968	0.0725206	-0.000180761	1	6.75774e-06	-1.31089e-08
2	0	0	0	0	12.6155	0.0676966	0.0674924	-0.000279377	1	6.7348e-06	-1.88558e-08
2	0	0	0	0	12.7155	0.0626964	0.0625342	-0.000389713	1	6.70134e-06	-2.43704e-08
2	0	0	0	0	12.8155	0.0576962	0.0574933	-0.000509605	1	6.65628e-06	-2.92989e-08
2	0	0	0	0	12.9155	0.052696	0.0525574	-0.000633128	1	6.59905e-06	-3.32755e-08
2	0	0	0	0	13.0155	0.0476958	0.0474582	-0.00075403	1	6.52948e-06	-3.57849e-08
2	0	0	0	0	13.1155	0.0426956	0.0424639	-0.000860381	1	6.44857e-06	-3.65352e-08
2	0	0	0	0	13.2155	0.0376954	0.037511	-0.000947345	1	6.35792e-06	-3.55359e-08
2	0	0	0	0	13.3155	0.0326952	0.0324797	-0.00100991	1	6.25981e-06	-3.28017e-08
2	0	0	0	0	13.4155	0.027695	0.0275003	-0.0010406	1	6.15695e-06	-2.86167e-08
2	0	0	0	0	13.5155	0.0226948	0.0225378	-0.0010476	1	6.05207e-06	-2.36107e-08
2	0	0	0	0	13.6155	0.0176946	0.0174641	-0.00103369	1	5.94767e-06	-1.80524e-08
2	0	0	0	0	13.7155	0.0126944	0.0124561	-0.00100368	1	5.84564e-06	-1.25019e-08
2	0	0	0	0	13.8155	0.00769417	0.00747029	-0.000960633	1	5.74736e-06	-7.17621e-09
2	0	0	0	0	13.9155	0.00269396	0.00245802	-0.000911582	1	5.65363e-06	-2.24069e-09
2	0	0	0	0	14.0155	-0.00230624	-0.00252562	-0.000863407	1	5.56474e-06	2.18064e-09
2	0	0	0	0	14.1155	-0.00730644	-0.00753683	-0.000815315	1	5.48075e-06	6.1449e-09
2	0	0	0	0	14.2155	-0.0123066	-0.0125067	-0.000769901	1	5.40148e-06	9.62892e-09
2	0	0	0	0	14.3155	-0.0173068	-0.0175688	-0.000727167	1	5.32663e-06	1.27754e-08
2	0	0	0	0	14.4155	-0.0223071	-0.0225683	-0.000689089	1	5.25579e-06	1.55516e-08
2	0	0	0	0	14.5155	-0.0273073	-0.0275531	-0.000654105	1	5.18862e-06	1.80226e-08
2	0	0	0	0	14.6155	-0.0323075	-0.0325759	-0.000623218	1	5.12474e-06	2.03019e-08
2	0	0	0	0	14.7155	-0.0373077	-0.0375002	-0.000593933	1	5.06384e-06	2.22726e-08
2	0	0	0	0	14.8155	-0.0423079	-0.042522	-0.00056805	1	5.00556e-06	2.41546e-08
2	0	0	0	0	14.9155	-0.0473081	-0.0475258	-0.000547671	1	4.94968e-06	2.60285e-08
2	0	0	0	0	15.0155	-0.0523083	-0.0525349	-0.000529016	1	4.89595e-06	2.77918e-08
2	0	0	0	0	15.1155	-0.0573085	-0.0575546	-0.000507609	1	4.84416e-06	2.92152e-08
2	0	0	0	0	15.2155	-0.0623087	-0.0625563	-0.00049041	1	4.79415e-06	3.06782e-08
2	0	0	0	0	15.3155	-0.0673089	-0.0675823	-0.000475848	1	4.74574e-06	3.21589e-08
2	0	0	0	0	15.4155	-0.0723091	-0.0725914	-0.000462299	1	4.69883e-06	3.3559e-08
2	0	0	0	0	15.5155	-0.0773093	-0.0775422	-0.000448244	1	4.65326e-06	3.47578e-08
2	0	0	0	0	15.6155	-0.0823095	-0.0825428	-0.000437783	1	4.60885e-06	3.61359e-08
2	0	0	0	0	15.7155	-0.0873097	-0.0875752	-0.000423668	1	4.56568e-06	3.71028e-08
2	0	0	0	0	15.8155	-0.0923099	-0.0926023	-0.000415244	1	4.5236e-06	3.84526e-08
2	0	0	0	0	15.9155	-0.0973101	-0.0975743	-0.000405026	1	4.48248e-06	3.95201e-08
2	0	0	1	0	16.0157	-0.10231	-0.102543	-0.000395904	1	4.44231e-06	4.05972e-08
2	0	0	1	0	16.1157	-0.107311	-0.10756	-0.000389118	1	4.40291e-06	4.18533e-08
2	0	0	1	0	16.2157	-0.112311	-0.11257	-0.000374101	1	4.36445e-06	4.21125e-08
2	0	0	1	0	16.3157	-0.117311	-0.117531	-0.000372397	1	4.3267e-06	4.37682e-08
2	0	0	1	0	16.4157	-0.122311	-0.12255	-0.000366801	1	4.28963e-06	4.49514e-08
2	0	0	1	0	16.5157	-0.127311	-0.127572	-0.000360403	1	4.25321e-06	4.59772e-08
2	0	0	1	0	16.6157	-0.132312	-0.132537	-0.000353957	1	4.2174e-06	4.69125e-08
2	0	0	1	0	16.7157	-0.137312	-0.1375	-0.000347194	1	4.18217e-06	4.7739e-08
2	0	0	1	0	16.8157	-0.142312	-0.14255	-0.000342552	1	4.14749e-06	4.88308e-08
2	0	0	1	0	16.9157	-0.147312	-0.147493	-0.000337539	1	4.11332e-06	4.97848e-08
2	0	0	1	0	17.0157	-0.152312	-0.152517	-0.00033475	1	4.07961e-06	5.10551e-08
2	0	0	1	0	17.1157	-0.157313	-0.157569	-0.000329223	1	4.04631e-06	5.18752e-08
2	0	0	1	0	17.2157	-0.162313	-0.162581	-0.000324962	1	4.01346e-06	5.28327e-08
2	0	0	1	0	17.3157	-0.167313	-0.167525	-0.000322752	1	3.98098e-06	5.40689e-08
2	0	0	1	0	17.4157	-0.172313	-0.172554	-0.00031878	1	3.94884e-06	5.50066e-08
2	0	0	1	0	17.5157	-0.177313	-0.177549	-0.000315233	1	3.91701e-06	5.59693e-08
2	0	0	1	0	17.6157	-0.182314	-0.182596	-0.000313092	1	3.88545e-06	5.71694e-08
2	0	0	1	0	17.7157	-0.187314	-0.187567	-0.000312338	1	3.85417e-06	5.85843e-08
2	0	0	1	0	17.8157	-0.192314	-0.192575	-0.000308768	1	3.82309e-06	5.9461e-08
2	0	0	1	0	17.9157	-0.197314	-0.197502	-0.000306606	1	3.79221e-06	6.05551e-08
2	1	0	0	1	18.0051	-0.198214	-0.198401	-0.000195565	1	3.7685e-06	3.88002e-08
2	1	0	0	1	18.1051	-0.193214	-0.193406	-0.000171213	1	3.75063e-06	3.31137e-08
2	1	0	0	1	18.2051	-0.188214	-0.188478	-0.000155082	1	3.73457e-06	2.92296e-08
2	1	0	0	1	18.3051	-0.183214	-0.183461	-0.000144972	1	3.71978e-06	2.65967e-08
2	1	0	0	1	18.4051	-0.178213	-0.178444	-0.000136601	1	3.70605e-06	2.43755e-08
2	1	0	0	1	18.5051	-0.173213	-0.173389	-0.000126866	1	3.69317e-06	2.19972e-08
2	1	0	0	1	18.6051	-0.168213	-0.168448	-0.000119693	1	3.68106e-06	2.0162e-08
2	1	0	0	1	18.7051	-0.163213	-0.163412	-0.00011209	1	3.66966e-06	1.83169e-08
2	1	0	0	1	18.8051	-0.158213	-0.158446	-0.000107946	1	3.65889e-06	1.71036e-08
2	1	0	0	1	18.9051	-0.153212	-0.153375	-0.000101068	1	3.64871e-06	1.55013e-08
2	1	0	0	1	19.0051	-0.148212	-0.148402	-9.68708e-05	1	3.63905e-06	1.43758e-08
2	1	0	0	1	19.1051	-0.143212	-0.143426	-9.13968e-05	1	3.62988e-06	1.31087e-08
2	1	0	0	1	19.2051	-0.138212	-0.138382	-8.87737e-05	1	3.6212e-06	1.22847e-08
2	1	0	0	1	19.3051	-0.133212	-0.133403	-8.27291e-05	1	3.61296e-06	1.10363e-08
2	1	0	0	1	19.4051	-0.128211	-0.128418	-7.78574e-05	1	3.60513e-06	9.99825e-09
2	1	0	0	1	19.5051	-0.123211	-0.123388	-7.55028e-05	1	3.5977e-06	9.31616e-09
2	1	0	0	1	19.6051	-0.118211	-0.118432	-7.10214e-05	1	3.59065e-06	8.41123e-09
2	1	0	0	1	19.7051	-0.113211	-0.113408	-6.73455e-05	1	3.58398e-06	7.63754e-09
2	1	0	0	1	19.8051	-0.108211	-0.108451	-6.47578e-05	1	3.57763e-06	7.02306e-09
2	1	0	0	1	19.9051	-0.10321	-0.103408	-6.11543e-05	1	3.57161e-06	6.32386e-09
2	1	0	1	1	20.0053	-0.0982101	-0.0984001	-5.80702e-05	2	3.5659e-06	5.71412e-09
2	1	0	1	1	20.1053	-0.09321	-0.0934356	-5.47794e-05	2	3.5605e-06	5.11834e-09
2	1	0	1	1	20.2053	-0.0882097	-0.0883555	-4.98635e-05	2	3.55542e-06	4.40571e-09
2	1	0	1	1	20.3053	-0.0832095	-0.0834142	-4.94325e-05	2	3.5506e-06	4.12338e-09
2	1	0	1	1	20.4053	-0.0782093	-0.0784009	-4.70126e-05	2	3.54606e-06	3.68583e-09
2	1	0	1	1	20.5053	-0.0732091	-0.0734342	-4.39867e-05	2	3.5418e-06	3.23013e-09
2	1	0	1	1	20.6053	-0.0682089	-0.0684028	-4.32254e-05	2	3.5378e-06	2.95674e-09
2	1	0	1	1	20.7053	-0.0632087	-0.063415	-3.73751e-05	2	3.53408e-06	2.37014e-09
2	1	0	1	1	20.8053	-0.0582085	-0.0583984	-3.57235e-05	2	3.53062e-06	2.0862e-09
2	1	0	1	1	20.9053	-0.0532083	-0.0534699	-3.31375e-05	2	3.52742e-06	1.77186e-09
2	1	0	1	1	21.0053	-0.0482081	-0.0483983	-2.98732e-05	2	3.52455e-06	1.44581e-09
2	1	0	1	1	21.1053	-0.0432079	-0.0434252	-2.54961e-05	2	3.52196e-06	1.10717e-09
2	1	0	1	1	21.2053	-0.0382077	-0.0384119	-2.27917e-05	2	3.51968e-06	8.75474e-10
2	1	0	1	1	21.3053	-0.0332075	-0.0334039	-1.89869e-05	2	3.51776e-06	6.34237e-10
2	1	0	1	1	21.4053	-0.0282073	-0.0283789	-1.58498e-05	2	3.51625e-06	4.498e-10
2	1	0	1	1	21.5053	-0.0232071	-0.0234345	-1.17023e-05	2	3.51522e-06	2.74237e-10
2	1	0	1	1	21.6053	-0.0182069	-0.0184254	-3.98491e-06	2	3.51475e-06	7.34235e-11
2	1	0	1	1	21.7053	-0.0132067	-0.0134248	3.37036e-06	2	3.51498e-06	-4.52463e-11
2	1	0	1	1	21.8053	-0.00820648	-0.00842416	1.28153e-05	2	3.51605e-06	-1.07958e-10
2	1	0	1	1	21.9053	-0.00320627	-0.00342567	2.52613e-05	2	3.51822e-06	-8.65369e-11
2	1	0	1	1	22.0053	0.00179393	0.00159932	4.13055e-05	2	3.52185e-06	6.60607e-11
2	1	0	1	1	22.1053	0.00679413	0.00661371	5.9971e-05	2	3.52723e-06	3.96631e-10
2	1	0	1	1	22.2053	0.0117943	0.0116376	8.8848e-05	2	3.53492e-06	1.03398e-09
2	1	0	1	1	22.3053	0.0167945	0.0166128	0.000120809	2	3.54561e-06	2.00698e-09
2	1	0	1	1	22.4053	0.0217947	0.0216198	0.000164701	2	3.56009e-06	3.56079e-09
2	1	0	1	1	22.5053	0.0267949	0.0266066	0.000216539	2	3.57939e-06	5.76137e-09
2	1	0	1	1	22.6053	0.0317951	0.0315966	0.000284112	2	3.60463e-06	8.97699e-09
2	1	0	1	1	22.7053	0.0367953	0.0365675	0.000362283	2	3.63708e-06	1.32478e-08
2	1	0	1	1	22.8053	0.0417955	0.0416127	0.000454414	2	3.67808e-06	1.89094e-08
2	1	0	1	1	22.9053	0.0467957	0.0466175	0.000557543	2	3.72885e-06	2.59913e-08
2	1	0	1	1	23.0053	0.0517959	0.0516743	0.000671997	2	3.79046e-06	3.4725e-08
2	1	0	1	1	23.1053	0.0567961	0.0566516	0.000784801	2	3.86352e-06	4.44602e-08
2	1	0	1	1	23.2053	0.0617963	0.0616257	0.000898728	2	3.94806e-06	5.53847e-08
2	1	0	1	1	23.3053	0.0667965	0.0665637	0.00100343	2	4.04359e-06	6.67921e-08
2	1	0	1	1	23.4053	0.0717967	0.0716078	0.0010952	2	4.14892e-06	7.84247e-08
2	1	0	1	1	23.5053	0.0767969	0.0765925	0.00116534	2	4.26233e-06	8.9256e-08
2	1	0	1	1	23.6053	0.0817971	0.0815942	0.00121459	2	4.3818e-06	9.91034e-08
2	1	0	1	1	23.7053	0.0867973	0.0865704	0.00124336	2	4.50511e-06	1.07638e-07
2	1	0	1	1	23.8053	0.0917976	0.0916707	0.00125135	2	4.63021e-06	1.14712e-07
2	1	0	1	1	23.9053	0.0967978	0.0966289	0.00124358	2	4.75524e-06	1.20166e-07
2	1	0	1	1	24.0053	0.101798	0.101594	0.0012209	2	4.87875e-06	1.24037e-07
2	1	0	1	1	24.1053	0.106798	0.106644	0.00119214	2	4.99969e-06	1.27135e-07
2	1	0	1	1	24.2053	0.111798	0.111616	0.00115748	2	5.11738e-06	1.29193e-07
2	1	0	1	1	24.3053	0.116799	0.116596	0.00111975	2	5.23144e-06	1.30559e-07
2	1	0	1	1	24.4053	0.121799	0.121636	0.00108123	2	5.34169e-06	1.31517e-07
2	1	0	1	1	24.5053	0.126799	0.126556	0.00104324	2	5.44815e-06	1.32028e-07
2	1	0	1	1	24.6053	0.131799	0.131628	0.00100839	2	5.55098e-06	1.32732e-07
2	1	0	1	1	24.7053	0.136799	0.136635	0.000974554	2	5.65032e-06	1.33158e-07
2	1	0	1	1	24.8053	0.1418	0.141629	0.000943185	2	5.74643e-06	1.33582e-07
2	1	0	1	1	24.9053	0.1468	0.146584	0.000914746	2	5.83952e-06	1.34087e-07
2	1	0	0	1	25.0055	0.1518	0.15159	0.00088805	2	5.92999e-06	1.3462e-07
2	1	0	0	1	25.1055	0.1568	0.15662	0.000864299	2	6.01778e-06	1.35367e-07
2	1	0	0	1	25.2055	0.1618	0.161622	0.000841285	2	6.10321e-06	1.3597e-07
2	1	0	0	1	25.3055	0.166801	0.16662	0.000819716	2	6.18648e-06	1.36581e-07
2	1	0	0	1	25.4055	0.171801	0.171667	0.000801919	2	6.26779e-06	1.37663e-07
2	1	0	0	1	25.5055	0.176801	0.176635	0.000784718	2	6.34727e-06	1.38609e-07
2	1	0	0	1	25.6055	0.181801	0.181627	0.000767455	2	6.4251e-06	1.39391e-07
2	1	0	0	1	25.7055	0.186801	0.186645	0.000752819	2	6.50138e-06	1.4051e-07
2	1	0	0	1	25.8055	0.191802	0.191606	0.000739203	2	6.57626e-06	1.41636e-07
2	1	0	0	1	25.9055	0.196802	0.196611	0.000727713	2	6.64984e-06	1.43077e-07
2	1	0	0	1	26.0055	0.201802	0.201624	0.000715599	2	6.72222e-06	1.44282e-07
2	1	0	0	1	26.1055	0.206802	0.206623	0.000705062	2	6.79354e-06	1.45682e-07
2	1	0	0	1	26.2055	0.211802	0.211612	0.000695762	2	6.86383e-06	1.47232e-07
2	1	0	0	1	26.3055	0.216803	0.216651	0.00068751	2	6.93321e-06	1.4895e-07
2	1	0	0	1	26.4055	0.221803	0.221612	0.00067872	2	7.00174e-06	1.50413e-07
2	1	0	0	1	26.5055	0.226803	0.22665	0.000671686	2	7.06947e-06	1.52238e-07
2	1	0	0	1	26.6055	0.231803	0.23159	0.000664343	2	7.13651e-06	1.53855e-07
2	1	0	0	1	26.7055	0.236803	0.236571	0.000659012	2	7.20287e-06	1.55903e-07
2	1	0	0	1	26.8055	0.241804	0.241629	0.000653026	2	7.26866e-06	1.5779e-07
2	1	0	0	1	26.9055	0.246804	0.246583	0.000646916	2	7.3339e-06	1.59519e-07
2	1	0	0	1	27.0055	0.251804	0.251648	0.000643549	2	7.39868e-06	1.61948e-07
2	1	0	0	1	27.1055	0.256804	0.256596	0.000640483	2	7.46307e-06	1.64346e-07
2	1	0	0	1	27.2055	0.261804	0.261635	0.000636521	2	7.52708e-06	1.66536e-07
2	1	0	0	1	27.3055	0.266805	0.26669	0.000633348	2	7.5908e-06	1.68908e-07
2	1	0	0	1	27.4055	0.271805	0.271629	0.000631434	2	7.65429e-06	1.71516e-07
2	1	0	0	1	27.5055	0.276805	0.276671	0.000629623	2	7.71761e-06	1.74198e-07
2	1	0	0	1	27.6055	0.281805	0.281624	0.000629319	2	7.78082e-06	1.77231e-07
2	1	0	0	1	27.7055	0.286805	0.286646	0.000629333	2	7.84398e-06	1.80396e-07
2	1	0	0	1	27.8055	0.291806	0.291644	0.000629425	2	7.90713e-06	1.83568e-07
2	1	0	0	1	27.9055	0.296806	0.296622	0.000629498	2	7.97035e-06	1.86723e-07
2	0	0	0	1	27.9951	0.298706	0.298548	0.000525994	2	8.02443e-06	1.57034e-07
2	0	0	0	1	28.0951	0.293706	0.293503	0.000486813	2	8.07454e-06	1.42881e-07
2	0	0	0	1	28.1951	0.288705	0.288524	0.000462515	2	8.12176e-06	1.33447e-07
2	0	0	0	1	28.2951	0.283705	0.28352	0.000446026	2	8.16693e-06	1.26457e-07
2	0	0	0	1	28.3951	0.278705	0.278483	0.000429861	2	8.21043e-06	1.19709e-07
2	0	0	0	1	28.4951	0.273705	0.273466	0.000417521	2	8.25255e-06	1.14178e-07
2	0	0	0	1	28.5951	0.268705	0.268521	0.000406257	2	8.29346e-06	1.09088e-07
2	0	0	0	1	28.6951	0.263704	0.263534	0.000396348	2	8.3333e-06	1.04451e-07
2	0	0	0	1	28.7951	0.258704	0.258467	0.000387268	2	8.37218e-06	1.00096e-07
2	0	0	0	1	28.8951	0.253704	0.253523	0.000378177	2	8.41016e-06	9.58765e-08
2	0	0	0	1	28.9951	0.248704	0.248534	0.000370793	2	8.44737e-06	9.21547e-08
2	0	0	0	1	29.0951	0.243704	0.243479	0.000363639	2	8.48383e-06	8.85387e-08
2	0	0	0	1	29.1951	0.238703	0.238457	0.000357568	2	8.51958e-06	8.52644e-08
2	0	0	0	1	29.2951	0.233703	0.233496	0.000352408	2	8.55468e-06	8.2286e-08
2	0	0	0	1	29.3951	0.228703	0.228508	0.000344352	2	8.58915e-06	7.86873e-08
2	0	0	0	1	29.4951	0.223703	0.223526	0.000338837	2	8.62302e-06	7.57388e-08
2	0	0	0	1	29.5951	0.218703	0.218534	0.000333331	2	8.65632e-06	7.28441e-08
2	0	0	0	1	29.6951	0.213702	0.213499	0.000328242	2	8.68904e-06	7.00795e-08
2	0	0	0	1	29.7951	0.208702	0.208538	0.000321565	2	8.72122e-06	6.70585e-08
2	0	0	0	1	29.8951	0.203702	0.203455	0.000315477	2	8.75286e-06	6.41854e-08
2	0	0	0	1	29.9951	0.198702	0.198467	0.000312299	2	8.78395e-06	6.19809e-08
2	0	0	0	1	30.0951	0.193702	0.193462	0.000305396	2	8.81454e-06	5.90824e-08
2	0	0	0	1	30.1951	0.188701	0.188453	0.000299387	2	8.84458e-06	5.64202e-08
2	0	0	0	1	30.2951	0.183701	0.183517	0.000295061	2	8.8741e-06	5.41485e-08
2	0	0	0	1	30.3951	0.178701	0.178518	0.000289597	2	8.9031e-06	5.16984e-08
2	0	0	0	1	30.4951	0.173701	0.173466	0.000284086	2	8.93154e-06	4.92792e-08
2	0	0	0	1	30.5951	0.168701	0.168454	0.000279188	2	8.95943e-06	4.70304e-08
2	0	0	0	1	30.6951	0.1637	0.163461	0.000272942	2	8.98676e-06	4.46154e-08
2	0	0	0	1	30.7951	0.1587	0.158474	0.000265936	2	9.01349e-06	4.21441e-08
2	0	0	0	1	30.8951	0.1537	0.153418	0.00025942	2	9.0396e-06	3.97996e-08
2	0	0	0	1	30.9951	0.1487	0.148478	0.000253186	2	9.06501e-06	3.75927e-08
2	0	0	1	1	31.0953	0.1437	0.143444	0.000245994	2	9.0898e-06	3.52863e-08
2	0	0	1	1	31.1953	0.138699	0.138455	0.000237764	2	9.11375e-06	3.29196e-08
2	0	0	1	1	31.2953	0.133699	0.133413	0.000228407	2	9.13684e-06	3.04725e-08
2	0	0	1	1	31.3953	0.128699	0.128451	0.000216617	2	9.15896e-06	2.78246e-08
2	0	0	1	1	31.4953	0.123699	0.123478	0.000207006	2	9.17996e-06	2.55606e-08
2	0	0	1	1	31.5953	0.118699	0.118432	0.000192286	2	9.19967e-06	2.27729e-08
2	0	0	1	1	31.6953	0.113698	0.113455	0.000175205	2	9.21786e-06	1.9878e-08
2	0	0	1	1	31.7953	0.108698	0.108441	0.000155482	2	9.23423e-06	1.68606e-08
2	0	0	1	1	31.8953	0.103698	0.103479	0.000131819	2	9.24842e-06	1.36406e-08
2	0	0	1	1	31.9953	0.0986978	0.098482	0.000101722	2	9.2599e-06	1.00177e-08
2	0	0	1	1	32.0953	0.0936976	0.0935121	6.62717e-05	2	9.26812e-06	6.19721e-09
2	0	0	1	1	32.1953	0.0886974	0.0884861	2.08683e-05	2	9.27231e-06	1.84655e-09
2	0	0	1	1	32.2953	0.0836972	0.0835013	-3.30068e-05	2	9.27155e-06	-2.75611e-09
2	0	0	1	1	32.3953	0.078697	0.0784848	-9.91831e-05	2	9.26479e-06	-7.78437e-09
2	0	0	1	1	32.4953	0.0736968	0.0734736	-0.000177267	2	9.25077e-06	-1.30244e-08
2	0	0	1	1	32.5953	0.0686966	0.0685228	-0.000270796	2	9.22824e-06	-1.85557e-08
2	0	0	1	1	32.6953	0.0636964	0.0635275	-0.000374296	2	9.19588e-06	-2.37781e-08
2	0	0	1	1	32.7953	0.0586962	0.0585142	-0.000489258	2	9.15251e-06	-2.86286e-08
2	0	0	1	1	32.8953	0.053696	0.053503	-0.000608068	2	9.09737e-06	-3.25335e-08
2	0	0	1	1	32.9953	0.0486958	0.0484536	-0.000730193	2	9.03015e-06	-3.53805e-08
2	0	0	1	1	33.0953	0.0436956	0.0434636	-0.000840093	2	8.95133e-06	-3.65135e-08
2	0	0	1	1	33.1953	0.0386954	0.0384461	-0.000933936	2	8.8622e-06	-3.59062e-08
2	0	0	1	1	33.2953	0.0336952	0.0334836	-0.00100489	2	8.76469e-06	-3.36472e-08
2	0	0	1	1	33.3953	0.028695	0.0284427	-0.00105282	2	8.66132e-06	-2.99451e-08
2	0	0	1	1	33.4953	0.0236948	0.0234368	-0.00107091	2	8.55475e-06	-2.50986e-08
2	0	0	1	1	33.5953	0.0186946	0.0184638	-0.00106617	2	8.44751e-06	-1.96855e-08
2	0	0	1	1	33.6953	0.0136944	0.013477	-0.0010416	2	8.34176e-06	-1.40376e-08
2	0	0	1	1	33.7953	0.00869421	0.00852723	-0.00100444	2	8.23907e-06	-8.56511e-09
2	0	0	1	1	33.8953	0.003694	0.00348104	-0.000960124	2	8.14051e-06	-3.34223e-09
2	0	0	1	1	33.9953	-0.0013062	-0.00156621	-0.000915138	2	8.04656e-06	1.4333e-09
2	0	0	1	1	34.0953	-0.0063064	-0.00656894	-0.000864833	2	7.95742e-06	5.68103e-09
2	0	0	1	1	34.1953	-0.0113066	-0.0116067	-0.000818429	2	7.87304e-06	9.49923e-09
2	0	0	1	1	34.2953	-0.0163068	-0.01655	-0.000775289	2	7.79313e-06	1.2831e-08
2	0	0	1	1	34.3953	-0.021307	-0.0215485	-0.000735711	2	7.71737e-06	1.58535e-08
2	0	0	1	1	34.4953	-0.0263072	-0.0265618	-0.000699086	2	7.64538e-06	1.8569e-08
2	0	0	1	1	34.5953	-0.0313074	-0.0315306	-0.000667622	2	7.57682e-06	2.10505e-08
2	0	0	1	1	34.6953	-0.0363076	-0.0365578	-0.000637542	2	7.51133e-06	2.33071e-08
2	0	0	1	1	34.7953	-0.0413078	-0.0415499	-0.000611911	2	7.44862e-06	2.54248e-08
2	0	0	1	1	34.8953	-0.046308	-0.0465473	-0.000587819	2	7.38841e-06	2.73614e-08
2	0	0	1	1	34.9953	-0.0513082	-0.0515458	-0.000566658	2	7.33046e-06	2.92088e-08
2	0	0	1	1	35.0953	-0.0563084	-0.0565687	-0.000547952	2	7.27452e-06	3.09969e-08
2	0	0	1	1	35.1953	-0.0613086	-0.061546	-0.000530652	2	7.22045e-06	3.26595e-08
2	0	0	1	1	35.2953	-0.0663089	-0.0665847	-0.000514659	2	7.16807e-06	3.42684e-08
2	0	0	1	1	35.3953	-0.071309	-0.0715408	-0.000499927	2	7.11725e-06	3.57652e-08
2	0	0	1	1	35.4953	-0.0763093	-0.0765658	-0.000485964	2	7.06785e-06	3.72082e-08
2	0	0	1	1	35.5953	-0.0813095	-0.0815367	-0.000471935	2	7.01976e-06	3.848e-08
2	0	0	1	1	35.6953	-0.0863097	-0.0865437	-0.000461066	2	6.97288e-06	3.99024e-08
2	0	0	1	1	35.7953	-0.0913099	-0.0916068	-0.00045023	2	6.92713e-06	4.12441e-08
2	0	0	1	1	35.8953	-0.0963101	-0.096582	-0.00044055	2	6.88243e-06	4.25492e-08
2	0	0	0	1	35.9955	-0.10131	-0.101556	-0.000430329	2	6.83863e-06	4.37026e-08
2	0	0	0	1	36.0955	-0.10631	-0.106582	-0.000420943	2	6.79582e-06	4.4865e-08
2	0	0	0	1	36.1955	-0.111311	-0.111541	-0.000413492	2	6.75385e-06	4.61215e-08
2	0	0	0	1	36.2955	-0.116311	-0.116577	-0.000407283	2	6.71269e-06	4.74799e-08
2	0	0	0	1	36.3955	-0.121311	-0.121506	-0.000398426	2	6.67227e-06	4.8411e-08
2	0	0	0	1	36.4955	-0.126311	-0.126615	-0.00039082	2	6.63256e-06	4.94839e-08
2	0	0	0	1	36.5955	-0.131311	-0.13154	-0.000385922	2	6.59349e-06	5.07641e-08
2	0	0	0	1	36.6955	-0.136312	-0.136546	-0.000379242	2	6.55506e-06	5.17837e-08
2	0	0	0	1	36.7955	-0.141312	-0.141483	-0.000372842	2	6.51722e-06	5.27506e-08
2	0	0	0	1	36.8955	-0.146312	-0.146552	-0.000367739	2	6.47994e-06	5.38929e-08
2	0	0	0	1	36.9955	-0.151312	-0.151591	-0.000362281	2	6.44318e-06	5.49184e-08
2	0	0	0	1	37.0955	-0.156313	-0.15652	-0.000358138	2	6.40688e-06	5.6056e-08
2	0	0	0	1	37.1955	-0.161313	-0.161529	-0.000354189	2	6.37106e-06	5.72119e-08
2	0	0	0	1	37.2955	-0.166313	-0.166531	-0.000349752	2	6.33567e-06	5.82446e-08
2	0	0	0	1	37.3955	-0.171313	-0.171551	-0.000346026	2	6.30066e-06	5.93611e-08
2	0	0	0	1	37.4955	-0.176313	-0.176567	-0.000342359	2	6.26601e-06	6.04495e-08
2	0	0	0	1	37.5955	-0.181314	-0.181596	-0.000339802	2	6.23168e-06	6.17065e-08
2	0	0	0	1	37.6955	-0.186314	-0.18661	-0.000336924	2	6.19764e-06	6.28734e-08
2	0	0	0	1	37.7955	-0.191314	-0.191565	-0.000334345	2	6.16386e-06	6.40488e-08
2	0	0	0	1	37.8955	-0.196314	-0.196569	-0.000332275	2	6.1303e-06	6.53149e-08
2	1	0	1	0	37.9849	-0.199214	-0.1994	-0.000230402	2	6.10205e-06	4.59421e-08
2	1	0	1	0	38.0849	-0.194214	-0.194367	-0.000199269	2	6.08126e-06	3.87313e-08
2	1	0	1	0	38.1849	-0.189214	-0.189424	-0.000185053	2	6.06251e-06	3.50534e-08
2	1	0	1	0	38.2849	-0.184214	-0.184431	-0.000171718	2	6.04509e-06	3.16703e-08
2	1	0	1	0	38.3849	-0.179213	-0.179412	-0.00016183	2	6.02875e-06	2.90342e-08
2	1	0	1	0	38.4849	-0.174213	-0.174438	-0.000153721	2	6.01331e-06	2.68146e-08
2	1	0	1	0	38.5849	-0.169213	-0.169431	-0.000146734	2	5.99866e-06	2.48613e-08
2	1	0	1	0	38.6849	-0.164213	-0.164437	-0.000139639	2	5.98474e-06	2.29619e-08
2	1	0	1	0	38.7849	-0.159213	-0.159377	-0.000132049	2	5.97146e-06	2.10456e-08
2	1	0	1	0	38.8849	-0.154212	-0.154391	-0.000128115	2	5.9588e-06	1.97797e-08
2	1	0	1	0	38.9849	-0.149212	-0.149442	-0.000121646	2	5.94667e-06	1.81791e-08
2	1	0	1	0	39.0849	-0.144212	-0.144387	-0.000115861	2	5.93507e-06	1.67289e-08
2	1	0	1	0	39.1849	-0.139212	-0.139406	-0.000112966	2	5.92398e-06	1.57481e-08
2	1	0	1	0	39.2849	-0.134212	-0.134457	-0.000108736	2	5.91334e-06	1.46203e-08
2	1	0	1	0	39.3849	-0.129211	-0.129442	-0.000104553	2	5.90315e-06	1.35335e-08
2	1	0	1	0	39.4849	-0.124211	-0.124385	-9.84959e-05	2	5.89339e-06	1.22514e-08
2	1	0	1	0	39.5849	-0.119211	-0.119446	-9.58852e-05	2	5.88403e-06	1.14531e-08
2	1	0	1	0	39.6849	-0.114211	-0.114402	-9.16511e-05	2	5.87507e-06	1.0485e-08
2	1	0	1	0	39.7849	-0.109211	-0.10939	-8.78463e-05	2	5.86645e-06	9.60955e-09
2	1	0	1	0	39.8849	-0.10421	-0.104413	-8.38331e-05	2	5.85819e-06	8.75328e-09
2	1	0	1	0	39.9849	-0.0992102	-0.099456	-8.09238e-05	3	5.85027e-06	8.04836e-09
2	1	0	0	0	40.0851	-0.09421	-0.0944554	-7.8034e-05	3	5.84264e-06	7.37073e-09
2	1	0	0	0	40.1851	-0.0892098	-0.0894039	-7.61493e-05	3	5.83535e-06	6.80804e-09
2	1	0	0	0	40.2851	-0.0842096	-0.0843673	-7.13129e-05	3	5.82836e-06	6.01647e-09
2	1	0	0	0	40.3851	-0.0792094	-0.0793772	-6.90007e-05	3	5.82165e-06	5.47708e-09
2	1	0	0	0	40.4851	-0.0742092	-0.0744328	-6.63458e-05	3	5.81525e-06	4.9383e-09
2	1	0	0	0	40.5851	-0.069209	-0.069463	-6.33817e-05	3	5.80914e-06	4.40268e-09
2	1	0	0	0	40.6851	-0.0642088	-0.0644698	-5.95787e-05	3	5.8033e-06	3.84103e-09
2	1	0	0	0	40.7851	-0.0592086	-0.0594639	-5.74467e-05	3	5.79776e-06	3.416e-09
2	1	0	0	0	40.8851	-0.0542084	-0.0544145	-5.53782e-05	3	5.7925e-06	3.01338e-09
2	1	0	0	0	40.9851	-0.0492081	-0.0494234	-5.05701e-05	3	5.78757e-06	2.49935e-09
2	1	0	0	0	41.0851	-0.0442079	-0.0443868	-4.93124e-05	3	5.78292e-06	2.18882e-09
2	1	0	0	0	41.1851	-0.0392077	-0.0393999	-4.39249e-05	3	5.77862e-06	1.73064e-09
2	1	0	0	0	41.2851	-0.0342075	-0.0344195	-4.14237e-05	3	5.7747e-06	1.42578e-09
2	1	0	0	0	41.3851	-0.0292073	-0.0294274	-3.57518e-05	3	5.77118e-06	1.05208e-09
2	1	0	0	0	41.4851	-0.0242071	-0.024431	-3.07811e-05	3	5.76817e-06	7.52014e-10
2	1	0	0	0	41.5851	-0.0192069	-0.0194134	-2.44345e-05	3	5.76571e-06	4.74357e-10
2	1	0	0	0	41.6851	-0.0142067	-0.0143725	-1.63868e-05	3	5.76395e-06	2.35519e-10
2	1	0	0	0	41.7851	-0.00920652	-0.0094387	-7.24921e-06	3	5.76303e-06	6.84231e-11
2	1	0	0	0	41.8851	-0.00420631	-0.00443385	4.25886e-06	3	5.76318e-06	-1.88831e-11
2	1	0	0	0	41.9851	0.000793888	0.000670653	1.93986e-05	3	5.76474e-06	1.30097e-11
2	1	0	0	0	42.0851	0.00579409	0.00560659	3.91505e-05	3	5.76797e-06	2.19501e-10
2	1	0	0	0	42.1851	0.0107943	0.0106263	6.30622e-05	3	5.77341e-06	6.70116e-10
2	1	0	0	0	42.2851	0.0157945	0.0155877	9.56981e-05	3	5.78165e-06	1.49171e-09
2	1	0	0	0	42.3851	0.0207947	0.0206317	0.000135264	3	5.79347e-06	2.79072e-09
2	1	0	0	0	42.4851	0.0257949	0.0255952	0.000185042	3	5.80977e-06	4.7362e-09
2	1	0	0	0	42.5851	0.0307951	0.0305577	0.000246497	3	5.83161e-06	7.53238e-09
2	1	0	0	0	42.6851	0.0357953	0.0356049	0.000320421	3	5.86016e-06	1.14086e-08
2	1	0	0	0	42.7851	0.0407955	0.0406236	0.000404028	3	5.8967e-06	1.6413e-08
2	1	0	0	0	42.8851	0.0457957	0.0456146	0.000501609	3	5.94238e-06	2.28807e-08
2	1	0	0	0	42.9851	0.0507959	0.0506682	0.000609101	3	5.99827e-06	3.08621e-08
2	1	0	0	0	43.0851	0.0557961	0.0555819	0.000719646	3	6.06514e-06	3.99993e-08
2	1	0	0	0	43.1851	0.0607963	0.060626	0.000832103	3	6.14313e-06	5.04471e-08
2	1	0	0	0	43.2851	0.0657965	0.0656011	0.000935962	3	6.23199e-06	6.14002e-08
2	1	0	0	0	43.3851	0.0707967	0.0705933	0.00102994	3	6.33076e-06	7.27069e-08
2	1	0	0	0	43.4851	0.0757969	0.075614	0.00110639	3	6.43801e-06	8.36585e-08
2	1	0	0	0	43.5851	0.0807971	0.0805945	0.00116258	3	6.55193e-06	9.36978e-08
2	1	0	0	0	43.6851	0.0857973	0.0856004	0.00119653	3	6.67042e-06	1.02423e-07
2	1	0	0	0	43.7851	0.0907975	0.0906604	0.00121271	3	6.79146e-06	1.09945e-07
2	1	0	0	0	43.8851	0.0957977	0.0956058	0.00121145	3	6.91315e-06	1.15822e-07
2	1	0	0	0	43.9851	0.100798	0.100614	0.00119654	3	7.03396e-06	1.20388e-07
2	1	0	0	0	44.0851	0.105798	0.105587	0.00117063	3	7.15269e-06	1.23603e-07
2	1	0	0	0	44.1851	0.110798	0.110658	0.00113879	3	7.26853e-06	1.26016e-07
2	1	0	0	0	44.2851	0.115798	0.115631	0.00110198	3	7.38097e-06	1.27422e-07
2	1	0	0	0	44.3851	0.120799	0.120578	0.00106518	3	7.48975e-06	1.28438e-07
2	1	0	0	0	44.4851	0.125799	0.125606	0.00102773	3	7.59481e-06	1.2909e-07
2	1	0	0	0	44.5851	0.130799	0.130591	0.000992884	3	7.69624e-06	1.29662e-07
2	1	0	0	0	44.6851	0.135799	0.135612	0.000958715	3	7.79417e-06	1.30013e-07
2	1	0	0	0	44.7851	0.1408	0.140569	0.00092778	3	7.88881e-06	1.30417e-07
2	1	0	0	0	44.8851	0.1458	0.145603	0.000898078	3	7.98038e-06	1.30763e-07
2	1	0	1	0	44.9853	0.1508	0.150639	0.000870234	3	8.06925e-06	1.31091e-07
2	1	0	1	0	45.0853	0.1558	0.155615	0.000843924	3	8.15539e-06	1.31327e-07
2	1	0	1	0	45.1853	0.1608	0.160641	0.000821962	3	8.23908e-06	1.32041e-07
2	1	0	1	0	45.2853	0.165801	0.165629	0.000801236	3	8.32057e-06	1.32708e-07
2	1	0	1	0	45.3853	0.170801	0.170637	0.000780106	3	8.40001e-06	1.33115e-07
2	1	0	1	0	45.4853	0.175801	0.175674	0.000763244	3	8.47756e-06	1.34082e-07
2	1	0	1	0	45.5853	0.180801	0.180654	0.000747118	3	8.5534e-06	1.3497e-07
2	1	0	1	0	45.6853	0.185801	0.185652	0.000730553	3	8.62763e-06	1.35628e-07
2	1	0	1	0	45.7853	0.190802	0.190654	0.000716569	3	8.70039e-06	1.36617e-07
2	1	0	1	0	45.8853	0.195802	0.195651	0.000704486	3	8.7718e-06	1.37833e-07
2	1	0	1	0	45.9853	0.200802	0.200628	0.000691378	3	8.84195e-06	1.3871e-07
2	1	0	1	0	46.0853	0.205802	0.205647	0.000681728	3	8.91097e-06	1.40195e-07
2	1	0	1	0	46.1853	0.210802	0.21064	0.000670261	3	8.97891e-06	1.41184e-07
2	1	0	1	0	46.2853	0.215803	0.215646	0.00066128	3	9.04586e-06	1.42602e-07
2	1	0	1	0	46.3853	0.220803	0.220672	0.000651332	3	9.1119e-06	1.43731e-07
2	1	0	1	0	46.4853	0.225803	0.225634	0.00064379	3	9.17709e-06	1.45261e-07
2	1	0	1	0	46.5853	0.230803	0.230623	0.000636885	3	9.24148e-06	1.4688e-07
2	1	0	1	0	46.6853	0.235803	0.235605	0.000628901	3	9.30514e-06	1.48172e-07
2	1	0	1	0	46.7853	0.240804	0.240612	0.000623774	3	9.36812e-06	1.50087e-07
2	1	0	1	0	46.8853	0.245804	0.245615	0.000617096	3	9.4305e-06	1.51568e-07
2	1	0	1	0	46.9853	0.250804	0.250628	0.000610977	3	9.4923e-06	1.53128e-07
2	1	0	1	0	47.0853	0.255804	0.255621	0.000607172	3	9.55362e-06	1.55206e-07
2	1	0	1	0	47.1853	0.260804	0.260603	0.000603081	3	9.61446e-06	1.57164e-07
2	1	0	1	0	47.2853	0.265805	0.265623	0.000599925	3	9.67491e-06	1.59354e-07
2	1	0	1	0	47.3853	0.270805	0.270662	0.000596468	3	9.73504e-06	1.61441e-07
2	1	0	1	0	47.4853	0.275805	0.275617	0.000593673	3	9.79488e-06	1.63627e-07
2	1	0	1	0	47.5853	0.280805	0.280581	0.000593304	3	9.85452e-06	1.6647e-07
2	1	0	1	0	47.6853	0.285805	0.285643	0.000590632	3	9.91401e-06	1.6871e-07
2	1	0	1	0	47.7853	0.290806	0.290611	0.000590224	3	9.97341e-06	1.71526e-07
2	1	0	1	0	47.8853	0.295806	0.295673	0.000591381	3	1.00328e-05	1.74855e-07
2	0	0	1	0	47.9749	0.299706	0.299503	0.000503896	3	1.00854e-05	1.50918e-07
2	0	0	1	0	48.0749	0.294706	0.294537	0.00045938	3	1.01328e-05	1.35304e-07
2	0	0	1	0	48.1749	0.289706	0.289522	0.000436673	3	1.01774e-05	1.26426e-07
2	0	0	1	0	48.2749	0.284705	0.284503	0.000419231	3	1.02199e-05	1.19273e-07
2	0	0	1	0	48.3749	0.279705	0.279499	0.000406473	3	1.0261e-05	1.13609e-07
2	0	0	1	0	48.4749	0.274705	0.274525	0.000394715	3	1.03008e-05	1.08359e-07
2	0	0	1	0	48.5749	0.269705	0.269507	0.000383031	3	1.03395e-05	1.03229e-07
2	0	0	1	0	48.6749	0.264705	0.264543	0.000374412	3	1.03772e-05	9.90482e-08
2	0	0	1	0	48.7749	0.259704	0.25948	0.000366314	3	1.0414e-05	9.5051e-08
2	0	0	1	0	48.8749	0.254704	0.254498	0.000358188	3	1.045e-05	9.11583e-08
2	0	0	1	0	48.9749	0.249704	0.249501	0.000350971	3	1.04853e-05	8.75675e-08
2	0	0	1	0	49.0749	0.244704	0.244487	0.000343799	3	1.05199e-05	8.40542e-08
2	0	0	1	0	49.1749	0.239703	0.239458	0.000337735	3	1.05538e-05	8.08735e-08
2	0	0	1	0	49.2749	0.234703	0.234491	0.000332547	3	1.05871e-05	7.79792e-08
2	0	0	1	0	49.3749	0.229703	0.229509	0.000326421	3	1.06198e-05	7.49166e-08
2	0	0	1	0	49.4749	0.224703	0.224446	0.00031997	3	1.0652e-05	7.1816e-08
2	0	0	1	0	49.5749	0.219703	0.219529	0.000314954	3	1.06836e-05	6.91415e-08
2	0	0	1	0	49.6749	0.214702	0.2145	0.000310956	3	1.07146e-05	6.67001e-08
2	0	0	1	0	49.7749	0.209702	0.209469	0.000304566	3	1.07451e-05	6.37969e-08
2	0	0	1	0	49.8749	0.204702	0.204482	0.000298963	3	1.07752e-05	6.11324e-08
2	0	0	1	0	49.9749	0.199702	0.199459	0.000294508	3	1.08047e-05	5.87422e-08
2	0	0	1	0	50.0749	0.194702	0.194483	0.000289565	3	1.08337e-05	5.63154e-08
2	0	0	1	0	50.1749	0.189701	0.18949	0.000284475	3	1.08621e-05	5.39052e-08
2	0	0	1	0	50.2749	0.184701	0.184453	0.00027869	3	1.08901e-05	5.14051e-08
2	0	0	1	0	50.3749	0.179701	0.179444	0.000272891	3	1.09176e-05	4.89685e-08
2	0	0	1	0	50.4749	0.174701	0.174444	0.00026816	3	1.09445e-05	4.6779e-08
2	0	0	1	0	50.5749	0.169701	0.169484	0.000263357	3	1.09709e-05	4.46348e-08
2	0	0	1	0	50.6749	0.1647	0.16447	0.000257919	3	1.09968e-05	4.242e-08
2	0	0	1	0	50.7749	0.1597	0.159493	0.000252118	3	1.10221e-05	4.02111e-08
2	0	0	1	0	50.8749	0.1547	0.154466	0.00024522	3	1.10468e-05	3.78782e-08
2	0	0	1	0	50.9749	0.1497	0.149496	0.000239792	3	1.10708e-05	3.5848e-08
2	0	0	0	0	51.0751	0.1447	0.144404	0.000230815	3	1.10942e-05	3.33307e-08
2	0	0	0	0	51.1751	0.139699	0.139454	0.000223585	3	1.11168e-05	3.11798e-08
2	0	0	0	0	51.2751	0.134699	0.134475	0.000216235	3	1.11386e-05	2.90783e-08
2	0	0	0	0	51.3751	0.129699	0.129491	0.000205845	3	1.11595e-05	2.6655e-08
2	0	0	0	0	51.4751	0.124699	0.124452	0.000194364	3	1.11793e-05	2.41889e-08
2	0	0	0	0	51.5751	0.119699	0.119433	0.000180531	3	1.11979e-05	2.15614e-08
2	0	0	0	0	51.6751	0.114698	0.1145	0.000165089	3	1.1215e-05	1.89028e-08
2	0	0	0	0	51.7751	0.109698	0.109438	0.000147342	3	1.12305e-05	1.61249e-08
2	0	0	0	0	51.8751	0.104698	0.104474	0.000125472	3	1.12439e-05	1.31086e-08
2	0	0	0	0	51.9751	0.0996979	0.0994742	9.57829e-05	3	1.12548e-05	9.52793e-09
2	0	0	0	0	52.0751	0.0946977	0.0944514	6.25746e-05	3	1.12626e-05	5.91026e-09
2	0	0	0	0	52.1751	0.0896975	0.0894815	2.26046e-05	3	1.12667e-05	2.0227e-09
2	0	0	0	0	52.2751	0.0846973	0.0845032	-2.96877e-05	3	1.12661e-05	-2.50871e-09
2	0	0	0	0	52.3751	0.0796971	0.0794506	-9.14003e-05	3	1.126e-05	-7.26181e-09
2	0	0	0	0	52.4751	0.0746969	0.0744585	-0.000165672	3	1.12471e-05	-1.23357e-08
2	0	0	0	0	52.5751	0.0696967	0.0695035	-0.000250646	3	1.12261e-05	-1.74208e-08
2	0	0	0	0	52.6751	0.0646964	0.0644552	-0.000351523	3	1.11959e-05	-2.26575e-08
2	0	0	0	0	52.7751	0.0596963	0.059463	-0.000459374	3	1.11552e-05	-2.73158e-08
2	0	0	0	0	52.8751	0.0546961	0.0545303	-0.000577703	3	1.11031e-05	-3.15023e-08
2	0	0	0	0	52.9751	0.0496959	0.0494639	-0.00069723	3	1.10392e-05	-3.44877e-08
2	0	0	0	0	53.0751	0.0446957	0.0444464	-0.000809497	3	1.09636e-05	-3.59792e-08
2	0	0	0	0	53.1751	0.0396955	0.0394776	-0.000908192	3	1.08773e-05	-3.58532e-08
2	0	0	0	0	53.2751	0.0346953	0.0345151	-0.000987196	3	1.07821e-05	-3.40732e-08
2	0	0	0	0	53.3751	0.0296951	0.0294657	-0.00104172	3	1.06803e-05	-3.0695e-08
2	0	0	0	0	53.4751	0.0246949	0.0244217	-0.00107128	3	1.05743e-05	-2.61625e-08
2	0	0	0	0	53.5751	0.0196946	0.0194518	-0.0010731	3	1.04668e-05	-2.08738e-08
2	0	0	0	0	53.6751	0.0146944	0.0144417	-0.00105572	3	1.03601e-05	-1.52463e-08
2	0	0	0	0	53.7751	0.00969425	0.00943364	-0.0010243	3	1.02558e-05	-9.66292e-09
2	0	0	0	0	53.8751	0.00469405	0.0044712	-0.000982885	3	1.01552e-05	-4.39467e-09
2	0	0	0	0	53.9751	-0.000306156	-0.00054425	-0.000935213	3	1.00591e-05	5.0899e-10
2	0	0	0	0	54.0751	-0.00530636	-0.00556076	-0.000888061	3	9.96755e-06	4.93829e-09
2	0	0	0	0	54.1751	-0.0103066	-0.0105826	-0.000842647	3	9.88078e-06	8.91737e-09
2	0	0	0	0	54.2751	-0.0153068	-0.0156023	-0.000799377	3	9.79853e-06	1.24721e-08
2	0	0	0	0	54.3751	-0.020307	-0.0205658	-0.000758828	3	9.72049e-06	1.56059e-08
2	0	0	0	0	54.4751	-0.0253072	-0.0255102	-0.000721066	3	9.6463e-06	1.83945e-08
2	0	0	0	0	54.5751	-0.0303074	-0.030585	-0.000689179	3	9.5756e-06	2.10785e-08
2	0	0	0	0	54.6751	-0.0353076	-0.0355665	-0.000659383	3	9.50806e-06	2.3452e-08
2	0	0	0	0	54.7751	-0.0403078	-0.0405375	-0.000630882	3	9.44337e-06	2.55744e-08
2	0	0	0	0	54.8751	-0.045308	-0.0454904	-0.000606907	3	9.38123e-06	2.76084e-08
2	0	0	0	0	54.9751	-0.0503082	-0.0505419	-0.000585172	3	9.3214e-06	2.95757e-08
2	0	0	0	0	55.0751	-0.0553084	-0.055517	-0.000565241	3	9.26362e-06	3.13805e-08
2	0	0	0	0	55.1751	-0.0603086	-0.0605452	-0.000547858	3	9.20777e-06	3.31702e-08
2	0	0	0	0	55.2751	-0.0653088	-0.0655808	-0.000530675	3	9.15365e-06	3.48021e-08
2	0	0	0	0	55.3751	-0.070309	-0.070645	-0.000515191	3	9.10113e-06	3.63956e-08
2	0	0	0	0	55.4751	-0.0753092	-0.075564	-0.000501858	3	9.05006e-06	3.79224e-08
2	0	0	0	0	55.5751	-0.0803094	-0.0805529	-0.000488361	3	9.00032e-06	3.93389e-08
2	0	0	0	0	55.6751	-0.0853096	-0.0855864	-0.000476506	3	8.95185e-06	4.07825e-08
2	0	0	0	0	55.7751	-0.0903098	-0.0905541	-0.000465194	3	8.90452e-06	4.21253e-08
2	0	0	0	0	55.8751	-0.09531	-0.0956173	-0.000455783	3	8.85827e-06	4.35807e-08
2	0	0	1	0	55.9753	-0.10031	-0.100574	-0.000444282	3	8.81295e-06	4.46834e-08
2	0	0	1	0	56.0753	-0.10531	-0.105553	-0.000436529	3	8.76864e-06	4.60769e-08
2	0	0	1	0	56.1753	-0.110311	-0.110543	-0.000426814	3	8.72521e-06	4.71812e-08
2	0	0	1	0	56.2753	-0.115311	-0.11555	-0.000421222	3	8.6826e-06	4.86721e-08
2	0	0	1	0	56.3753	-0.120311	-0.120554	-0.000411825	3	8.64075e-06	4.96469e-08
2	0	0	1	0	56.4753	-0.125311	-0.125586	-0.000404127	3	8.59961e-06	5.07526e-08
2	0	0	1	0	56.5753	-0.130311	-0.130529	-0.00039902	3	8.55916e-06	5.20838e-08
2	0	0	1	0	56.6753	-0.135312	-0.135508	-0.000393007	3	8.51938e-06	5.32555e-08
2	0	0	1	0	56.7753	-0.140312	-0.140531	-0.000386477	3	8.48022e-06	5.43118e-08
2	0	0	1	0	56.8753	-0.145312	-0.145525	-0.000381091	3	8.44163e-06	5.54582e-08
2	0	0	1	0	56.9753	-0.150312	-0.150528	-0.00037541	3	8.40358e-06	5.65096e-08
2	0	0	1	0	57.0753	-0.155312	-0.155571	-0.00037001	3	8.36604e-06	5.75627e-08
2	0	0	1	0	57.1753	-0.160313	-0.160572	-0.000366345	3	8.32899e-06	5.88248e-08
2	0	0	1	0	57.2753	-0.165313	-0.165549	-0.000361072	3	8.2924e-06	5.97754e-08
2	0	0	1	0	57.3753	-0.170313	-0.170568	-0.00035708	3	8.25619e-06	6.09065e-08
2	0	0	1	0	57.4753	-0.175313	-0.17556	-0.000353982	3	8.22038e-06	6.21452e-08
2	0	0	1	0	57.5753	-0.180313	-0.180558	-0.000350796	3	8.18492e-06	6.33388e-08
2	0	0	1	0	57.6753	-0.185314	-0.185565	-0.000347789	3	8.14977e-06	6.45374e-08
2	0	0	1	0	57.7753	-0.190314	-0.190597	-0.00034559	3	8.1149e-06	6.58684e-08
2	0	0	1	0	57.8753	-0.195314	-0.19548	-0.000343643	3	8.08027e-06	6.71754e-08
2	1	0	1	1	57.9692	-0.199989	-0.200257	-0.000307579	3	8.04798e-06	6.15948e-08
2	1	0	0	1	58.0647	-0.195214	-0.195409	-0.000210731	3	8.0267e-06	4.11787e-08
2	1	0	0	1	58.1647	-0.190214	-0.190451	-0.000194505	3	8.00674e-06	3.70436e-08
2	1	0	0	1	58.2647	-0.185214	-0.185449	-0.000183682	3	7.98818e-06	3.40637e-08
2	1	0	0	1	58.3647	-0.180213	-0.18042	-0.000172972	3	7.97074e-06	3.12077e-08
2	1	0	0	1	58.4647	-0.175213	-0.175432	-0.000163911	3	7.95421e-06	2.87552e-08
2	1	0	0	1	58.5647	-0.170213	-0.17041	-0.000155411	3	7.9385e-06	2.64836e-08
2	1	0	0	1	58.6647	-0.165213	-0.165445	-0.000148902	3	7.92353e-06	2.4635e-08
2	1	0	0	1	58.7647	-0.160213	-0.16046	-0.000141566	3	7.90919e-06	2.27157e-08
2	1	0	0	1	58.8647	-0.155212	-0.155405	-0.000137638	3	7.89546e-06	2.13896e-08
2	1	0	0	1	58.9647	-0.150212	-0.150375	-0.000131992	3	7.88234e-06	1.98483e-08
2	1	0	0	1	59.0647	-0.145212	-0.145377	-0.000127599	3	7.86974e-06	1.855e-08
2	1	0	0	1	59.1647	-0.140212	-0.140462	-0.000120813	3	7.85763e-06	1.69695e-08
2	1	0	0	1	59.2647	-0.135212	-0.135426	-0.000116086	3	7.846e-06	1.5721e-08
2	1	0	0	1	59.3647	-0.130211	-0.130353	-0.000112283	3	7.83483e-06	1.46364e-08
2	1	0	0	1	59.4647	-0.125211	-0.125439	-0.000108029	3	7.8241e-06	1.3551e-08
2	1	0	0	1	59.5647	-0.120211	-0.12045	-0.000103435	3	7.81378e-06	1.24587e-08
2	1	0	0	1	59.6647	-0.115211	-0.115443	-9.99355e-05	3	7.80386e-06	1.15368e-08
2	1	0	0	1	59.7647	-0.110211	-0.110457	-9.68514e-05	3	7.79432e-06	1.06979e-08
2	1	0	0	1	59.8647	-0.10521	-0.105438	-9.27551e-05	3	7.78512e-06	9.77994e-09
2	1	0	0	1	59.9647	-0.10021	-0.100381	-8.91181e-05	3	7.7763e-06	8.94581e-09
2	1	0	1	1	60.0649	-0.09521	-0.0954424	-8.6707e-05	3	7.76775e-06	8.27552e-09
2	1	0	1	1	60.1649	-0.0902098	-0.0903898	-8.35558e-05	3	7.75957e-06	7.55259e-09
2	1	0	1	1	60.2649	-0.0852096	-0.0854868	-8.02014e-05	3	7.75168e-06	6.85616e-09
2	1	0	1	1	60.3649	-0.0802094	-0.0804533	-7.67269e-05	3	7.7441e-06	6.17293e-09
2	1	0	1	1	60.4649	-0.0752092	-0.0753827	-7.45083e-05	3	7.73682e-06	5.61663e-09
2	1	0	1	1	60.5649	-0.070209	-0.0704383	-7.08713e-05	3	7.72982e-06	4.99205e-09
2	1	0	0	1	60.6274	-0.0670839	-0.0672536	-7.60786e-05	3	7.72559e-06	5.11656e-09