File: AutoAnalysis Examples/EC/C003A-5ppb-B_C01.mpt
EC-Lab ASCII FILE
Nb header lines : 59

Cyclic Voltammetry

Run on channel : 1 (SN 22398)
User :
CE vs. WE compliance from -10 V to 10 V
Electrode connection : standard
Ewe ctrl range : min = -1.00 V, max = 1.00 V
Safety Limits :
	Ewe min = -2.00 V
	Ewe max = 2.00 V
	|I| = 50.000 mA
	for t > 10 ms
Acquisition started on : 11/21/2018 10:59:54
Technique started on : 11/21/2018 10:59:54
Saved on :
	File : C003A-5ppb-B_C01.mpr
	Directory : \\ECCOMPUTER\Users\Lab User\Google Drive\Electrochemical Data\EC-Lab\Data\FREDsense\Tim\2018.11.21 - EC comparison to High Throughput\
	Host : 172.16.1.30
Device : SP-50 (SN 0301030103010301)
Address : USB
EC-Lab for windows v11.02 (software)
Internet server v11.02 (firmware)
Command interpretor v11.02 (firmware)
Electrode material : Au/Pd
Initial state :
Electrolyte : NaCl (0.2M)
Comments : Fe(CN)63-/Fe(CN)64- 5.10-3 M
Reference electrode : SCE Saturated Calomel Electrode (0.241 V)
Electrode surface area : 0.001 cm²
Characteristic mass : 0.001 g
Equivalent Weight : 0.000 g/eq.
Density : 0.000 g/cm3
Cycle Definition : Charge/Discharge alternance
Ei (V)              -0.100
vs.                 Ref
dE/dt               50.000
dE/dt unit          mV/s
E1 (V)              0.300
vs.                 Ref
Step percent        50
N                   10
E range min (V)     -1.000
E range max (V)     1.000
I Range             Auto
I Range min         Unset
I Range max         Unset
I Range init        Unset
Bandwidth           5
E2 (V)              -0.200
vs.                 Ref
nc cycles           2
Reverse Scan        1
Ef (V)              0.000
vs.                 Eoc

mode	ox/red	error	control changes	counter inc.	time/s	control/V	Ewe/V	<I>/mA	cycle number	(Q-Qo)/C	P/W
2	1	0	1	0	0.000000000000000E+000	-0.0984851	-0.0986406	-4.8255e-05	1	0.0000000E+000	4.7599e-09
2	1	0	0	0	0.111	-0.0929349	-0.0930559	-2.19646e-05	1	1.36877e-09	2.04393e-09
2	1	0	1	0	0.2265	-0.0871597	-0.0873216	4.40434e-05	1	5.7e-09	-3.84594e-09
2	1	0	1	0	0.3265	-0.0821595	-0.0822924	4.95333e-05	1	1.07448e-08	-4.07622e-09
2	1	0	1	0	0.4265	-0.0771593	-0.0772876	5.18297e-05	1	1.62173e-08	-4.00579e-09
2	1	0	1	0	0.5265	-0.0721591	-0.0722435	5.60531e-05	1	2.19968e-08	-4.04947e-09
2	1	0	1	0	0.6265	-0.0671589	-0.0672842	5.77648e-05	1	2.80262e-08	-3.88666e-09
2	1	0	1	0	0.7265	-0.0621587	-0.0622974	6.00752e-05	1	3.43024e-08	-3.74253e-09
2	1	0	1	0	0.8265	-0.0571585	-0.0572671	6.19652e-05	1	4.0766e-08	-3.54857e-09
2	1	0	1	0	0.9265	-0.0521583	-0.0522464	6.78067e-05	1	4.74536e-08	-3.54265e-09
2	1	0	1	0	1.0265	-0.0471581	-0.0472489	6.67416e-05	1	5.43314e-08	-3.15347e-09
2	1	0	1	0	1.1265	-0.0421579	-0.0422674	6.81494e-05	1	6.13995e-08	-2.8805e-09
2	1	0	1	0	1.2265	-0.0371577	-0.0372753	6.93364e-05	1	6.86983e-08	-2.58453e-09
2	1	0	1	0	1.3265	-0.0321575	-0.0322164	7.35881e-05	1	7.62126e-08	-2.37074e-09
2	1	0	1	0	1.4265	-0.0271573	-0.027291	7.66387e-05	1	8.39908e-08	-2.09155e-09
2	1	0	1	0	1.5265	-0.022157	-0.0223063	7.8716e-05	1	9.20628e-08	-1.75586e-09
2	1	0	1	0	1.6265	-0.0171568	-0.0172739	8.38173e-05	1	1.00492e-07	-1.44785e-09
2	1	0	1	0	1.7265	-0.0121566	-0.0122659	8.85583e-05	1	1.09362e-07	-1.08624e-09
2	1	0	1	0	1.8265	-0.00715643	-0.00730872	9.45464e-05	1	1.18752e-07	-6.91013e-10
2	1	0	1	0	1.9265	-0.00215623	-0.0022392	0.000101997	1	1.28802e-07	-2.28392e-10
2	1	0	1	0	2.0265	0.00284397	0.00271052	0.000111108	1	1.39759e-07	3.01161e-10
2	1	0	1	0	2.1265	0.00784417	0.00769522	0.000124671	1	1.51779e-07	9.59367e-10
2	1	0	1	0	2.2265	0.0128444	0.0127605	0.000141155	1	1.65238e-07	1.8012e-09
2	1	0	1	0	2.3265	0.0178446	0.0177335	0.00016114	1	1.80566e-07	2.85757e-09
2	1	0	1	0	2.4265	0.0228448	0.0227161	0.000187537	1	1.98307e-07	4.2601e-09
2	1	0	1	0	2.5265	0.027845	0.0277538	0.000222022	1	2.19112e-07	6.16196e-09
2	1	0	1	0	2.6265	0.0328452	0.032658	0.000265417	1	2.43704e-07	8.66798e-09
2	1	0	1	0	2.7265	0.0378454	0.0377328	0.000315353	1	2.72932e-07	1.18991e-08
2	1	0	1	0	2.8265	0.0428456	0.0427207	0.000373128	1	3.07597e-07	1.59403e-08
2	1	0	1	0	2.9265	0.0478458	0.0476958	0.000437319	1	3.48399e-07	2.08583e-08
2	1	0	1	0	3.0265	0.052846	0.0527897	0.000506443	1	3.95913e-07	2.6735e-08
2	1	0	1	0	3.1265	0.0578462	0.0577607	0.000572742	1	4.50174e-07	3.30819e-08
2	1	0	1	0	3.2265	0.0628464	0.0626436	0.000634203	1	5.10878e-07	3.97288e-08
2	1	0	1	0	3.3265	0.0678466	0.0677248	0.000687133	1	5.77389e-07	4.65359e-08
2	1	0	1	0	3.4265	0.0728468	0.0727317	0.000728732	1	6.48594e-07	5.30019e-08
2	1	0	1	0	3.5265	0.077847	0.0777429	0.000754336	1	7.23158e-07	5.86443e-08
2	1	0	1	0	3.6265	0.0828472	0.0827276	0.000767436	1	7.99679e-07	6.34881e-08
2	1	0	1	0	3.7265	0.0878474	0.0877388	0.00077055	1	8.76927e-07	6.76071e-08
2	1	0	1	0	3.8265	0.0928476	0.0927511	0.000761181	1	9.53848e-07	7.06004e-08
2	1	0	1	0	3.9265	0.0978478	0.0977273	0.000747228	1	1.02965e-06	7.30246e-08
2	1	0	1	0	4.0265	0.102848	0.102689	0.000729315	1	1.10382e-06	7.48924e-08
2	1	0	1	0	4.1265	0.107848	0.107718	0.000709046	1	1.17607e-06	7.63769e-08
2	1	0	1	0	4.2265	0.112848	0.112701	0.000689972	1	1.2463e-06	7.77602e-08
2	1	0	1	0	4.3265	0.117849	0.117681	0.000669471	1	1.31452e-06	7.8784e-08
2	1	0	1	0	4.4265	0.122849	0.122683	0.000650256	1	1.38078e-06	7.97752e-08
2	1	0	1	0	4.5265	0.127849	0.127727	0.000633705	1	1.44522e-06	8.09411e-08
2	1	0	1	0	4.6265	0.132849	0.132691	0.000617256	1	1.50799e-06	8.19046e-08
2	1	0	1	0	4.7265	0.137849	0.137747	0.000602108	1	1.56922e-06	8.29386e-08
2	1	0	1	0	4.8265	0.14285	0.142682	0.000588823	1	1.62909e-06	8.40144e-08
2	1	0	0	0	4.9267	0.14785	0.147675	0.000579205	1	1.68782e-06	8.55341e-08
2	1	0	0	0	5.0267	0.15285	0.152762	0.000570251	1	1.74533e-06	8.71124e-08
2	1	0	0	0	5.1267	0.15785	0.157775	0.000558916	1	1.80187e-06	8.81829e-08
2	1	0	0	0	5.2267	0.16285	0.162721	0.000548825	1	1.8575e-06	8.93055e-08
2	1	0	0	0	5.3267	0.167851	0.167699	0.000542478	1	1.91238e-06	9.09729e-08
2	1	0	0	0	5.4267	0.172851	0.172735	0.000535492	1	1.96654e-06	9.24984e-08
2	1	0	0	0	5.5267	0.177851	0.177694	0.000529617	1	2.0201e-06	9.41095e-08
2	1	0	0	0	5.6267	0.182851	0.182718	0.000526718	1	2.07313e-06	9.62406e-08
2	1	0	0	0	5.7267	0.187851	0.187709	0.000519626	1	2.12568e-06	9.75383e-08
2	1	0	0	0	5.8267	0.192852	0.192737	0.000517056	1	2.17785e-06	9.96557e-08
2	1	0	0	0	5.9267	0.197852	0.197713	0.000513834	1	2.22965e-06	1.01592e-07
2	1	0	0	0	6.0267	0.202852	0.202714	0.000510686	1	2.28117e-06	1.03523e-07
2	1	0	0	0	6.1267	0.207852	0.207756	0.000508945	1	2.33248e-06	1.05736e-07
2	1	0	0	0	6.2267	0.212852	0.212697	0.000506618	1	2.3836e-06	1.07756e-07
2	1	0	0	0	6.3267	0.217853	0.217669	0.000505241	1	2.43455e-06	1.09975e-07
2	1	0	0	0	6.4267	0.222853	0.222706	0.000505283	1	2.4854e-06	1.1253e-07
2	1	0	0	0	6.5267	0.227853	0.227682	0.000504396	1	2.53618e-06	1.14842e-07
2	1	0	0	0	6.6267	0.232853	0.232743	0.00050325	1	2.58694e-06	1.17128e-07
2	1	0	0	0	6.7267	0.237853	0.237713	0.000504965	1	2.63768e-06	1.20036e-07
2	1	0	0	0	6.8267	0.242854	0.242706	0.000503299	1	2.68846e-06	1.22154e-07
2	1	0	0	0	6.9267	0.247854	0.247713	0.000505543	1	2.7393e-06	1.25229e-07
2	1	0	0	0	7.0267	0.252854	0.252713	0.000507101	1	2.79023e-06	1.28151e-07
2	1	0	0	0	7.1267	0.257854	0.257782	0.000508169	1	2.84133e-06	1.30997e-07
2	1	0	0	0	7.2267	0.262854	0.262738	0.000509111	1	2.89255e-06	1.33763e-07
2	1	0	0	0	7.3267	0.267855	0.26773	0.000513193	1	2.94396e-06	1.37397e-07
2	1	0	0	0	7.4267	0.272855	0.272738	0.000513689	1	2.99557e-06	1.40103e-07
2	1	0	0	0	7.5267	0.277855	0.277719	0.000515938	1	3.04741e-06	1.43286e-07
2	1	0	0	0	7.6267	0.282855	0.282683	0.000518559	1	3.09953e-06	1.46588e-07
2	1	0	0	0	7.7267	0.287855	0.287727	0.000522737	1	3.1519e-06	1.50405e-07
2	1	0	0	0	7.8267	0.292856	0.292703	0.000525038	1	3.20457e-06	1.5368e-07
2	1	0	0	0	7.9267	0.297856	0.2977	0.000528506	1	3.25757e-06	1.57336e-07
2	0	0	1	0	8.0153	0.297706	0.297523	0.000393624	1	3.29906e-06	1.17112e-07
2	0	0	1	0	8.1153	0.292706	0.292524	0.00034623	1	3.33562e-06	1.01281e-07
2	0	0	1	0	8.2153	0.287705	0.287531	0.000316639	1	3.36847e-06	9.10435e-08
2	0	0	1	0	8.3153	0.282705	0.282538	0.000292823	1	3.39863e-06	8.27334e-08
2	0	0	1	0	8.4153	0.277705	0.277527	0.000275106	1	3.42668e-06	7.63491e-08
2	0	0	1	0	8.5153	0.272705	0.272515	0.000257922	1	3.45302e-06	7.02877e-08
2	0	0	1	0	8.6153	0.267705	0.267551	0.000244144	1	3.47793e-06	6.5321e-08
2	0	0	1	0	8.7153	0.262704	0.262477	0.00023395	1	3.50158e-06	6.14066e-08
2	0	0	1	0	8.8153	0.257704	0.257518	0.000223299	1	3.52417e-06	5.75035e-08
2	0	0	1	0	8.9153	0.252704	0.252461	0.000214433	1	3.54577e-06	5.41361e-08
2	0	0	1	0	9.0153	0.247704	0.247542	0.000206548	1	3.56657e-06	5.11294e-08
2	0	0	1	0	9.1153	0.242704	0.242552	0.000199937	1	3.58659e-06	4.8495e-08
2	0	0	1	0	9.2153	0.237703	0.23752	0.000190956	1	3.60593e-06	4.53559e-08
2	0	0	1	0	9.3153	0.232703	0.232506	0.000186404	1	3.62463e-06	4.33402e-08
2	0	0	1	0	9.4153	0.227703	0.227518	0.000180508	1	3.64276e-06	4.10689e-08
2	0	0	1	0	9.5153	0.222703	0.222544	0.000177111	1	3.66042e-06	3.94151e-08
2	0	0	1	0	9.6153	0.217703	0.21752	0.00017302	1	3.67767e-06	3.76354e-08
2	0	0	1	0	9.7153	0.212702	0.212525	0.000166176	1	3.69443e-06	3.53165e-08
2	0	0	1	0	9.8153	0.207702	0.207452	0.00016074	1	3.7106e-06	3.3346e-08
2	0	0	1	0	9.9153	0.202702	0.202505	0.000155957	1	3.72625e-06	3.1582e-08
2	0	0	1	0	10.0153	0.197702	0.197513	0.000152159	1	3.74149e-06	3.00533e-08
2	0	0	1	0	10.1153	0.192702	0.192508	0.000148153	1	3.75633e-06	2.85206e-08
2	0	0	1	0	10.2153	0.187701	0.187501	0.000144196	1	3.77078e-06	2.70369e-08
2	0	0	1	0	10.3153	0.182701	0.182517	0.000140414	1	3.78485e-06	2.5628e-08
2	0	0	1	0	10.4153	0.177701	0.177532	0.000138302	1	3.79855e-06	2.45531e-08
2	0	0	1	0	10.5153	0.172701	0.17252	0.000136963	1	3.812e-06	2.36289e-08
2	0	0	1	0	10.6153	0.167701	0.167522	0.000135555	1	3.82551e-06	2.27084e-08
2	0	0	1	0	10.7153	0.1627	0.16251	0.000128193	1	3.83843e-06	2.08327e-08
2	0	0	1	0	10.8153	0.1577	0.157538	0.000121784	1	3.85068e-06	1.91857e-08
2	0	0	1	0	10.9153	0.1527	0.152522	0.000113625	1	3.86241e-06	1.73303e-08
2	0	0	1	0	11.0153	0.1477	0.14745	0.000112359	1	3.87371e-06	1.65673e-08
2	0	0	0	0	11.1155	0.1427	0.142571	0.000106766	1	3.8846e-06	1.52217e-08
2	0	0	0	0	11.2155	0.137699	0.137554	0.000102667	1	3.89497e-06	1.41222e-08
2	0	0	0	0	11.3155	0.132699	0.132542	9.67385e-05	1	3.90481e-06	1.28219e-08
2	0	0	0	0	11.4155	0.127699	0.127454	9.01605e-05	1	3.91408e-06	1.14913e-08
2	0	0	0	0	11.5155	0.122699	0.122499	8.5188e-05	1	3.92271e-06	1.04355e-08
2	0	0	0	0	11.6155	0.117699	0.117574	7.7211e-05	1	3.93059e-06	9.078e-09
2	0	0	0	0	11.7155	0.112698	0.11251	6.56199e-05	1	3.93758e-06	7.38288e-09
2	0	0	0	0	11.8155	0.107698	0.107511	5.4829e-05	1	3.94354e-06	5.89473e-09
2	0	0	0	0	11.9155	0.102698	0.102511	4.15192e-05	1	3.94822e-06	4.25616e-09
2	0	0	0	0	12.0155	0.0976978	0.0975259	2.47614e-05	1	3.95139e-06	2.41488e-09
2	0	0	0	0	12.1155	0.0926976	0.0925603	3.75543e-06	1	3.95265e-06	3.47604e-10
2	0	0	0	0	12.2155	0.0876974	0.0875332	-2.24261e-05	1	3.95156e-06	-1.96303e-09
2	0	0	0	0	12.3155	0.0826972	0.0824902	-5.42618e-05	1	3.94757e-06	-4.47607e-09
2	0	0	0	0	12.4155	0.077697	0.0775447	-9.23542e-05	1	3.94006e-06	-7.16158e-09
2	0	0	0	0	12.5155	0.0726968	0.0725335	-0.000139157	1	3.92824e-06	-1.00935e-08
2	0	0	0	0	12.6155	0.0676966	0.0675244	-0.000193472	1	3.91156e-06	-1.3064e-08
2	0	0	0	0	12.7155	0.0626964	0.0625164	-0.000254149	1	3.88911e-06	-1.58885e-08
2	0	0	0	0	12.8155	0.0576962	0.0575751	-0.000318891	1	3.86037e-06	-1.83602e-08
2	0	0	0	0	12.9155	0.052696	0.0525618	-0.00038497	1	3.82503e-06	-2.02347e-08
2	0	0	0	0	13.0155	0.0476958	0.0474743	-0.000450037	1	3.78306e-06	-2.13652e-08
2	0	0	0	0	13.1155	0.0426956	0.042498	-0.00050526	1	3.73507e-06	-2.14726e-08
2	0	0	0	0	13.2155	0.0376954	0.0375621	-0.000549399	1	3.68206e-06	-2.06366e-08
2	0	0	0	0	13.3155	0.0326952	0.0325361	-0.000579487	1	3.62534e-06	-1.88542e-08
2	0	0	0	0	13.4155	0.027695	0.0275047	-0.00059034	1	3.56646e-06	-1.62371e-08
2	0	0	0	0	13.5155	0.0226948	0.0225253	-0.000592354	1	3.50692e-06	-1.33429e-08
2	0	0	0	0	13.6155	0.0176946	0.0175915	-0.000580252	1	3.44803e-06	-1.02075e-08
2	0	0	0	0	13.7155	0.0126944	0.0125591	-0.000561316	1	3.39073e-06	-7.04961e-09
2	0	0	0	0	13.8155	0.00769417	0.00753832	-0.000536483	1	3.33567e-06	-4.04418e-09
2	0	0	0	0	13.9155	0.00269396	0.0025939	-0.000509236	1	3.28317e-06	-1.32091e-09
2	0	0	0	0	14.0155	-0.00230624	-0.00245971	-0.000484337	1	3.23327e-06	1.19133e-09
2	0	0	0	0	14.1155	-0.00730644	-0.00754089	-0.000459097	1	3.18599e-06	3.462e-09
2	0	0	0	0	14.2155	-0.0123066	-0.012444	-0.000436575	1	3.14116e-06	5.43273e-09
2	0	0	0	0	14.3155	-0.0173068	-0.0174531	-0.000413382	1	3.09855e-06	7.21479e-09
2	0	0	0	0	14.4155	-0.0223071	-0.0224886	-0.000394867	1	3.05794e-06	8.88003e-09
2	0	0	0	0	14.5155	-0.0273073	-0.0274999	-0.000378772	1	3.01916e-06	1.04162e-08
2	0	0	0	0	14.6155	-0.0323075	-0.032493	-0.000363026	1	2.98198e-06	1.17958e-08
2	0	0	0	0	14.7155	-0.0373077	-0.0374438	-0.000349093	1	2.94624e-06	1.30714e-08
2	0	0	0	0	14.8155	-0.0423079	-0.0424232	-0.000337279	1	2.91177e-06	1.43085e-08
2	0	0	0	0	14.9155	-0.0473081	-0.0474726	-0.000327257	1	2.87845e-06	1.55357e-08
2	0	0	0	0	15.0155	-0.0523083	-0.0524488	-0.000321329	1	2.84614e-06	1.68533e-08
2	0	0	0	0	15.1155	-0.0573085	-0.0574876	-0.000308775	1	2.81473e-06	1.77507e-08
2	0	0	0	0	15.2155	-0.0623087	-0.0625084	-0.000299826	1	2.78419e-06	1.87416e-08
2	0	0	0	0	15.3155	-0.0673089	-0.0675047	-0.000293079	1	2.75436e-06	1.97842e-08
2	0	0	0	0	15.4155	-0.0723091	-0.0724491	-0.000286977	1	2.72526e-06	2.07913e-08
2	0	0	0	0	15.5155	-0.0773093	-0.0774953	-0.000281602	1	2.69678e-06	2.18229e-08
2	0	0	0	0	15.6155	-0.0823095	-0.0825172	-0.000275137	1	2.66887e-06	2.27035e-08
2	0	0	0	0	15.7155	-0.0873097	-0.0874955	-0.000269642	1	2.64149e-06	2.35925e-08
2	0	0	0	0	15.8155	-0.0923099	-0.0925216	-0.00026763	1	2.61459e-06	2.47616e-08
2	0	0	0	0	15.9155	-0.0973101	-0.0975137	-0.000260245	1	2.58815e-06	2.53774e-08
2	0	0	1	0	16.0157	-0.10231	-0.102471	-0.000256138	1	2.56209e-06	2.62467e-08
2	0	0	1	0	16.1157	-0.107311	-0.107433	-0.000253319	1	2.53647e-06	2.72149e-08
2	0	0	1	0	16.2157	-0.112311	-0.112481	-0.000249911	1	2.51119e-06	2.81102e-08
2	0	0	1	0	16.3157	-0.117311	-0.117448	-0.000245156	1	2.48624e-06	2.87932e-08
2	0	0	1	0	16.4157	-0.122311	-0.122507	-0.00024392	1	2.46161e-06	2.98819e-08
2	0	0	1	0	16.5157	-0.127311	-0.127429	-0.000240901	1	2.43727e-06	3.06979e-08
2	0	0	1	0	16.6157	-0.132312	-0.132467	-0.000236623	1	2.41318e-06	3.13447e-08
2	0	0	1	0	16.7157	-0.137312	-0.137476	-0.000236006	1	2.38933e-06	3.24452e-08
2	0	0	1	0	16.8157	-0.142312	-0.142468	-0.00023309	1	2.3657e-06	3.32079e-08
2	0	0	1	0	16.9157	-0.147312	-0.147432	-0.000232449	1	2.3423e-06	3.42703e-08
2	0	0	1	0	17.0157	-0.152312	-0.152484	-0.000230446	1	2.31906e-06	3.51394e-08
2	0	0	1	0	17.1157	-0.157313	-0.15754	-0.000229329	1	2.29593e-06	3.61286e-08
2	0	0	1	0	17.2157	-0.162313	-0.162471	-0.000228218	1	2.27298e-06	3.70788e-08
2	0	0	1	0	17.3157	-0.167313	-0.167517	-0.000227374	1	2.25014e-06	3.8089e-08
2	0	0	1	0	17.4157	-0.172313	-0.172502	-0.000226666	1	2.22739e-06	3.91002e-08
2	0	0	1	0	17.5157	-0.177313	-0.177486	-0.000225228	1	2.20472e-06	3.99748e-08
2	0	0	1	0	17.6157	-0.182314	-0.182481	-0.000224004	1	2.18206e-06	4.08763e-08
2	0	0	1	0	17.7157	-0.187314	-0.187436	-0.000225357	1	2.15946e-06	4.22399e-08
2	0	0	1	0	17.8157	-0.192314	-0.192523	-0.000224424	1	2.13685e-06	4.32068e-08
2	0	0	1	0	17.9157	-0.197314	-0.197444	-0.000225613	1	2.11419e-06	4.4546e-08
2	1	0	0	1	18.0051	-0.198214	-0.198321	-0.000102945	1	2.09809e-06	2.04162e-08
2	1	0	0	1	18.1051	-0.193214	-0.193345	-8.00106e-05	1	2.08939e-06	1.54696e-08
2	1	0	0	1	18.2051	-0.188214	-0.188327	-6.60384e-05	1	2.08241e-06	1.24368e-08
2	1	0	0	1	18.3051	-0.183214	-0.183358	-5.68072e-05	1	2.07658e-06	1.04161e-08
2	1	0	0	1	18.4051	-0.178213	-0.178272	-4.92576e-05	1	2.07167e-06	8.78125e-09
2	1	0	0	1	18.5051	-0.173213	-0.173344	-4.10457e-05	1	2.06749e-06	7.11504e-09
2	1	0	0	1	18.6051	-0.168213	-0.168362	-3.32135e-05	1	2.06396e-06	5.59188e-09
2	1	0	0	1	18.7051	-0.163213	-0.163307	-2.98873e-05	1	2.061e-06	4.88082e-09
2	1	0	0	1	18.8051	-0.158213	-0.158334	-2.50262e-05	1	2.05854e-06	3.9625e-09
2	1	0	0	1	18.9051	-0.153212	-0.153335	-1.98012e-05	1	2.05655e-06	3.03621e-09
2	1	0	0	1	19.0051	-0.148212	-0.148325	-1.64645e-05	1	2.05496e-06	2.44211e-09
2	1	0	0	1	19.1051	-0.143212	-0.14329	-1.23523e-05	1	2.05373e-06	1.76996e-09
2	1	0	0	1	19.2051	-0.138212	-0.138325	-1.18648e-05	1	2.05288e-06	1.6412e-09
2	1	0	0	1	19.3051	-0.133212	-0.133272	-6.50203e-06	1	2.05234e-06	8.66536e-10
2	1	0	0	1	19.4051	-0.128211	-0.128336	-3.14941e-06	1	2.0521e-06	4.04182e-10
2	1	0	0	1	19.5051	-0.123211	-0.123325	-1.25937e-06	1	2.05215e-06	1.55311e-10
2	1	0	0	1	19.6051	-0.118211	-0.118317	1.06345e-06	1	2.05247e-06	-1.25823e-10
2	1	0	0	1	19.7051	-0.113211	-0.113332	5.30103e-06	1	2.05306e-06	-6.00775e-10
2	1	0	0	1	19.8051	-0.108211	-0.108326	6.89785e-06	1	2.05387e-06	-7.47216e-10
2	1	0	0	1	19.9051	-0.10321	-0.103388	8.77553e-06	1	2.05492e-06	-9.07283e-10
2	1	0	1	1	20.0053	-0.0982101	-0.0983469	9.63576e-06	2	2.05617e-06	-9.47648e-10
2	1	0	1	1	20.1053	-0.09321	-0.0932976	1.24072e-05	2	2.05764e-06	-1.15757e-09
2	1	0	1	1	20.2053	-0.0882097	-0.0883616	1.45287e-05	2	2.05931e-06	-1.28378e-09
2	1	0	1	1	20.3053	-0.0832095	-0.0832985	1.60284e-05	2	2.06115e-06	-1.33514e-09
2	1	0	1	1	20.4053	-0.0782093	-0.0783689	1.92167e-05	2	2.06318e-06	-1.50599e-09
2	1	0	1	1	20.5053	-0.0732091	-0.0733905	1.99921e-05	2	2.0654e-06	-1.46723e-09
2	1	0	1	1	20.6053	-0.0682089	-0.068374	2.08559e-05	2	2.06778e-06	-1.426e-09
2	1	0	1	1	20.7053	-0.0632087	-0.0633342	2.3419e-05	2	2.07033e-06	-1.48322e-09
2	1	0	1	1	20.8053	-0.0582085	-0.0583781	2.46325e-05	2	2.07303e-06	-1.438e-09
2	1	0	1	1	20.9053	-0.0532083	-0.0533764	2.65137e-05	2	2.0759e-06	-1.41521e-09
2	1	0	1	1	21.0053	-0.0482081	-0.0483048	2.73845e-05	2	2.07897e-06	-1.3228e-09
2	1	0	1	1	21.1053	-0.0432079	-0.0432872	3.02779e-05	2	2.08219e-06	-1.31065e-09
2	1	0	1	1	21.2053	-0.0382077	-0.0383555	3.15815e-05	2	2.08559e-06	-1.21132e-09
2	1	0	1	1	21.3053	-0.0332075	-0.033251	3.45119e-05	2	2.0892e-06	-1.14756e-09
2	1	0	1	1	21.4053	-0.0282073	-0.0283607	3.62059e-05	2	2.09302e-06	-1.02682e-09
2	1	0	1	1	21.5053	-0.0232071	-0.0233473	3.88237e-05	2	2.09714e-06	-9.0643e-10
2	1	0	1	1	21.6053	-0.0182069	-0.0183277	4.31814e-05	2	2.10156e-06	-7.91414e-10
2	1	0	1	1	21.7053	-0.0132067	-0.013327	4.77634e-05	2	2.10636e-06	-6.36545e-10
2	1	0	1	1	21.8053	-0.00820648	-0.00837203	5.37268e-05	2	2.11164e-06	-4.49802e-10
2	1	0	1	1	21.9053	-0.00320627	-0.00329721	6.15501e-05	2	2.11752e-06	-2.02944e-10
2	1	0	1	1	22.0053	0.00179393	0.00168538	6.76407e-05	2	2.12423e-06	1.14e-10
2	1	0	1	1	22.1053	0.00679413	0.00673263	7.96239e-05	2	2.1319e-06	5.36078e-10
2	1	0	1	1	22.2053	0.0117943	0.0117216	9.49492e-05	2	2.14087e-06	1.11295e-09
2	1	0	1	1	22.3053	0.0167945	0.0167423	0.000113689	2	2.15151e-06	1.90342e-09
2	1	0	1	1	22.4053	0.0217947	0.0217079	0.000138436	2	2.16429e-06	3.00516e-09
2	1	0	1	1	22.5053	0.0267949	0.0266725	0.000166955	2	2.17977e-06	4.4531e-09
2	1	0	1	1	22.6053	0.0317951	0.0316774	0.000204344	2	2.1986e-06	6.47307e-09
2	1	0	1	1	22.7053	0.0367953	0.0366695	0.000248242	2	2.22147e-06	9.10292e-09
2	1	0	1	1	22.8053	0.0417955	0.0416913	0.000299305	2	2.24914e-06	1.24784e-08
2	1	0	1	1	22.9053	0.0467957	0.0466908	0.000355586	2	2.28225e-06	1.66026e-08
2	1	0	1	1	23.0053	0.0517959	0.0516883	0.000418643	2	2.32133e-06	2.16389e-08
2	1	0	1	1	23.1053	0.0567961	0.0566549	0.000481136	2	2.36661e-06	2.72587e-08
2	1	0	1	1	23.2053	0.0617963	0.0617054	0.000538998	2	2.41797e-06	3.32591e-08
2	1	0	1	1	23.3053	0.0667965	0.0666827	0.000593036	2	2.47497e-06	3.95452e-08
2	1	0	1	1	23.4053	0.0717967	0.0716992	0.000636597	2	2.53679e-06	4.56435e-08
2	1	0	1	1	23.5053	0.0767969	0.0767061	0.0006675	2	2.60235e-06	5.12013e-08
2	1	0	1	1	23.6053	0.0817971	0.0816887	0.000686602	2	2.67044e-06	5.60876e-08
2	1	0	1	1	23.7053	0.0867973	0.086683	0.000694049	2	2.73982e-06	6.01622e-08
2	1	0	1	1	23.8053	0.0917976	0.0916973	0.000690242	2	2.80946e-06	6.32934e-08
2	1	0	1	1	23.9053	0.0967978	0.096698	0.000682196	2	2.87842e-06	6.5967e-08
2	1	0	1	1	24.0053	0.101798	0.101718	0.000665555	2	2.94608e-06	6.76987e-08
2	1	0	1	1	24.1053	0.106798	0.106656	0.000646814	2	3.01201e-06	6.89864e-08
2	1	0	1	1	24.2053	0.111798	0.111699	0.000627191	2	3.07601e-06	7.00564e-08
2	1	0	1	1	24.3053	0.116799	0.11669	0.000607215	2	3.13799e-06	7.08557e-08
2	1	0	1	1	24.4053	0.121799	0.121655	0.000584536	2	3.19792e-06	7.11119e-08
2	1	0	1	1	24.5053	0.126799	0.126641	0.000567561	2	3.2559e-06	7.18765e-08
2	1	0	1	1	24.6053	0.131799	0.131628	0.00054986	2	3.31207e-06	7.23769e-08
2	1	0	1	1	24.7053	0.136799	0.136645	0.000533596	2	3.36653e-06	7.2913e-08
2	1	0	1	1	24.8053	0.1418	0.141641	0.000517455	2	3.41944e-06	7.32928e-08
2	1	0	1	1	24.9053	0.1468	0.146618	0.000505021	2	3.4709e-06	7.40453e-08
2	1	0	0	1	25.0055	0.1518	0.151589	0.000493674	2	3.52116e-06	7.48356e-08
2	1	0	0	1	25.1055	0.1568	0.156654	0.00048155	2	3.57018e-06	7.54368e-08
2	1	0	0	1	25.2055	0.1618	0.161712	0.000470736	2	3.6181e-06	7.61237e-08
2	1	0	0	1	25.3055	0.166801	0.166693	0.000461556	2	3.66504e-06	7.6938e-08
2	1	0	0	1	25.4055	0.171801	0.17164	0.000454087	2	3.71109e-06	7.79397e-08
2	1	0	0	1	25.5055	0.176801	0.176729	0.000446193	2	3.75634e-06	7.88553e-08
2	1	0	0	1	25.6055	0.181801	0.181702	0.000437215	2	3.80086e-06	7.94428e-08
2	1	0	0	1	25.7055	0.186801	0.186655	0.000431335	2	3.84473e-06	8.05107e-08
2	1	0	0	1	25.8055	0.191802	0.191645	0.000426069	2	3.888e-06	8.16539e-08
2	1	0	0	1	25.9055	0.196802	0.196739	0.000421225	2	3.93073e-06	8.28713e-08
2	1	0	0	1	26.0055	0.201802	0.201658	0.00041753	2	3.97298e-06	8.41982e-08
2	1	0	0	1	26.1055	0.206802	0.206647	0.000412247	2	4.01484e-06	8.51894e-08
2	1	0	0	1	26.2055	0.211802	0.211679	0.000408914	2	4.0563e-06	8.65585e-08
2	1	0	0	1	26.3055	0.216803	0.216668	0.000407767	2	4.09743e-06	8.83501e-08
2	1	0	0	1	26.4055	0.221803	0.221724	0.000402625	2	4.1383e-06	8.92716e-08
2	1	0	0	1	26.5055	0.226803	0.22668	0.000400511	2	4.1789e-06	9.07877e-08
2	1	0	0	1	26.6055	0.231803	0.231711	0.000399405	2	4.21932e-06	9.25466e-08
2	1	0	0	1	26.7055	0.236803	0.236622	0.000397641	2	4.25959e-06	9.40904e-08
2	1	0	0	1	26.8055	0.241804	0.24166	0.000398268	2	4.29974e-06	9.62455e-08
2	1	0	0	1	26.9055	0.246804	0.246641	0.0003961	2	4.33983e-06	9.76945e-08
2	1	0	0	1	27.0055	0.251804	0.251644	0.00039823	2	4.37989e-06	1.00212e-07
2	1	0	0	1	27.1055	0.256804	0.256646	0.000398253	2	4.42001e-06	1.0221e-07
2	1	0	0	1	27.2055	0.261804	0.261652	0.000397759	2	4.46017e-06	1.04075e-07
2	1	0	0	1	27.3055	0.266805	0.266685	0.000399956	2	4.50044e-06	1.06662e-07
2	1	0	0	1	27.4055	0.271805	0.271643	0.000401608	2	4.54088e-06	1.09094e-07
2	1	0	0	1	27.5055	0.276805	0.276684	0.000405603	2	4.58154e-06	1.12224e-07
2	1	0	0	1	27.6055	0.281805	0.281685	0.00040601	2	4.62245e-06	1.14367e-07
2	1	0	0	1	27.7055	0.286805	0.286648	0.000409542	2	4.66367e-06	1.17394e-07
2	1	0	0	1	27.8055	0.291806	0.291627	0.000415211	2	4.70525e-06	1.21087e-07
2	1	0	0	1	27.9055	0.296806	0.296677	0.000419076	2	4.74725e-06	1.2433e-07
2	0	0	0	1	27.9951	0.298706	0.298536	0.000307291	2	4.78238e-06	9.17375e-08
2	0	0	0	1	28.0951	0.293706	0.293501	0.000270764	2	4.81075e-06	7.94693e-08
2	0	0	0	1	28.1951	0.288705	0.288533	0.00024744	2	4.83633e-06	7.13946e-08
2	0	0	0	1	28.2951	0.283705	0.283505	0.000231518	2	4.85998e-06	6.56364e-08
2	0	0	0	1	28.3951	0.278705	0.278538	0.000218491	2	4.8821e-06	6.0858e-08
2	0	0	0	1	28.4951	0.273705	0.273568	0.00020587	2	4.903e-06	5.63194e-08
2	0	0	0	1	28.5951	0.268705	0.268507	0.000194828	2	4.92286e-06	5.23127e-08
2	0	0	0	1	28.6951	0.263704	0.263535	0.000187844	2	4.94182e-06	4.95034e-08
2	0	0	0	1	28.7951	0.258704	0.258539	0.000180747	2	4.95999e-06	4.673e-08
2	0	0	0	1	28.8951	0.253704	0.253535	0.00017396	2	4.97744e-06	4.41049e-08
2	0	0	0	1	28.9951	0.248704	0.248532	0.000167292	2	4.9943e-06	4.15774e-08
2	0	0	0	1	29.0951	0.243704	0.243528	0.000162947	2	5.01059e-06	3.96821e-08
2	0	0	0	1	29.1951	0.238703	0.238542	0.000157476	2	5.02634e-06	3.75646e-08
2	0	0	0	1	29.2951	0.233703	0.233472	0.000152783	2	5.04161e-06	3.56705e-08
2	0	0	0	1	29.3951	0.228703	0.228516	0.000148347	2	5.05645e-06	3.38997e-08
2	0	0	0	1	29.4951	0.223703	0.22355	0.000144232	2	5.07085e-06	3.2243e-08
2	0	0	0	1	29.5951	0.218703	0.218568	0.000140423	2	5.08486e-06	3.0692e-08
2	0	0	0	1	29.6951	0.213702	0.213454	0.000137459	2	5.09849e-06	2.93412e-08
2	0	0	0	1	29.7951	0.208702	0.208541	0.000132651	2	5.11176e-06	2.76632e-08
2	0	0	0	1	29.8951	0.203702	0.203512	0.000127965	2	5.12468e-06	2.60424e-08
2	0	0	0	1	29.9951	0.198702	0.198494	0.000126693	2	5.13725e-06	2.51478e-08
2	0	0	0	1	30.0951	0.193702	0.193525	0.000124478	2	5.1495e-06	2.40897e-08
2	0	0	0	1	30.1951	0.188701	0.188506	0.000119763	2	5.16142e-06	2.25761e-08
2	0	0	0	1	30.2951	0.183701	0.183519	0.00011692	2	5.17303e-06	2.1457e-08
2	0	0	0	1	30.3951	0.178701	0.178506	0.000113445	2	5.18432e-06	2.02506e-08
2	0	0	0	1	30.4951	0.173701	0.173551	0.000110926	2	5.19528e-06	1.92513e-08
2	0	0	0	1	30.5951	0.168701	0.168571	0.00010777	2	5.20592e-06	1.81669e-08
2	0	0	0	1	30.6951	0.1637	0.163525	0.000103057	2	5.21623e-06	1.68524e-08
2	0	0	0	1	30.7951	0.1587	0.158552	0.00010069	2	5.2262e-06	1.59646e-08
2	0	0	0	1	30.8951	0.1537	0.153627	9.63411e-05	2	5.23582e-06	1.48006e-08
2	0	0	0	1	30.9951	0.1487	0.1485	9.27129e-05	2	5.24505e-06	1.37679e-08
2	0	0	1	1	31.0953	0.1437	0.143506	8.81326e-05	2	5.25394e-06	1.26475e-08
2	0	0	1	1	31.1953	0.138699	0.138521	8.45451e-05	2	5.26238e-06	1.17113e-08
2	0	0	1	1	31.2953	0.133699	0.133575	7.96857e-05	2	5.27036e-06	1.06441e-08
2	0	0	1	1	31.3953	0.128699	0.128518	7.29116e-05	2	5.27782e-06	9.37042e-09
2	0	0	1	1	31.4953	0.123699	0.123568	6.86175e-05	2	5.28469e-06	8.47892e-09
2	0	0	1	1	31.5953	0.118699	0.118552	6.10096e-05	2	5.2909e-06	7.23284e-09
2	0	0	1	1	31.6953	0.113698	0.113526	5.19692e-05	2	5.2963e-06	5.89988e-09
2	0	0	1	1	31.7953	0.108698	0.108564	4.12189e-05	2	5.30075e-06	4.47489e-09
2	0	0	1	1	31.8953	0.103698	0.103572	2.89513e-05	2	5.30407e-06	2.99854e-09
2	0	0	1	1	31.9953	0.0986978	0.0985405	1.29177e-05	2	5.30595e-06	1.27292e-09
2	0	0	1	1	32.0953	0.0936976	0.0935398	-6.79172e-06	2	5.30612e-06	-6.35296e-10
2	0	0	1	1	32.1953	0.0886974	0.088535	-3.1228e-05	2	5.30416e-06	-2.76477e-09
2	0	0	1	1	32.2953	0.0836972	0.0835588	-5.98189e-05	2	5.29956e-06	-4.9984e-09
2	0	0	1	1	32.3953	0.078697	0.0785603	-9.49561e-05	2	5.29173e-06	-7.45978e-09
2	0	0	1	1	32.4953	0.0736968	0.0735279	-0.000137466	2	5.28e-06	-1.01076e-08
2	0	0	1	1	32.5953	0.0686966	0.0685591	-0.000187399	2	5.26368e-06	-1.28479e-08
2	0	0	1	1	32.6953	0.0636964	0.063568	-0.000243695	2	5.24204e-06	-1.54912e-08
2	0	0	1	1	32.7953	0.0586962	0.0585091	-0.000304943	2	5.21441e-06	-1.7842e-08
2	0	0	1	1	32.8953	0.053696	0.0535944	-0.000371144	2	5.18043e-06	-1.98913e-08
2	0	0	1	1	32.9953	0.0486958	0.0485312	-0.000435254	2	5.13992e-06	-2.11234e-08
2	0	0	1	1	33.0953	0.0436956	0.0435126	-0.000493277	2	5.09325e-06	-2.14637e-08
2	0	0	1	1	33.1953	0.0386954	0.0385459	-0.000540547	2	5.04121e-06	-2.08359e-08
2	0	0	1	1	33.2953	0.0336952	0.0335538	-0.000576702	2	4.98491e-06	-1.93505e-08
2	0	0	1	1	33.3953	0.028695	0.0285245	-0.000599411	2	4.92582e-06	-1.70979e-08
2	0	0	1	1	33.4953	0.0236948	0.0235292	-0.000604553	2	4.86541e-06	-1.42247e-08
2	0	0	1	1	33.5953	0.0186946	0.0185626	-0.000597655	2	4.80504e-06	-1.1094e-08
2	0	0	1	1	33.6953	0.0136944	0.0135662	-0.000582469	2	4.74581e-06	-7.90189e-09
2	0	0	1	1	33.7953	0.00869421	0.00855286	-0.000560034	2	4.68846e-06	-4.78989e-09
2	0	0	1	1	33.8953	0.003694	0.00354272	-0.000536161	2	4.6335e-06	-1.89947e-09
2	0	0	1	1	33.9953	-0.0013062	-0.00151726	-0.000509955	2	4.58105e-06	7.73733e-10
2	0	0	1	1	34.0953	-0.0063064	-0.00646486	-0.000484692	2	4.53117e-06	3.13347e-09
2	0	0	1	1	34.1953	-0.0113066	-0.0115344	-0.000461231	2	4.4838e-06	5.32001e-09
2	0	0	1	1	34.2953	-0.0163068	-0.0165117	-0.00043887	2	4.43869e-06	7.24647e-09
2	0	0	1	1	34.3953	-0.021307	-0.0214741	-0.000418051	2	4.39568e-06	8.97727e-09
2	0	0	1	1	34.4953	-0.0263072	-0.0264821	-0.000401346	2	4.35454e-06	1.06285e-08
2	0	0	1	1	34.5953	-0.0313074	-0.0314912	-0.000386086	2	4.31509e-06	1.21583e-08
2	0	0	1	1	34.6953	-0.0363076	-0.0365035	-0.000370042	2	4.27714e-06	1.35078e-08
2	0	0	1	1	34.7953	-0.0413078	-0.041431	-0.000357676	2	4.24052e-06	1.48188e-08
2	0	0	1	1	34.8953	-0.046308	-0.0464687	-0.000347008	2	4.20511e-06	1.6125e-08
2	0	0	1	1	34.9953	-0.0513082	-0.0514809	-0.000336693	2	4.17077e-06	1.73333e-08
2	0	0	1	1	35.0953	-0.0563084	-0.0564794	-0.000328133	2	4.13737e-06	1.85328e-08
2	0	0	1	1	35.1953	-0.0613086	-0.0615044	-0.000318792	2	4.10484e-06	1.96071e-08
2	0	0	1	1	35.2953	-0.0663089	-0.0665209	-0.000312912	2	4.07313e-06	2.08152e-08
2	0	0	1	1	35.3953	-0.071309	-0.0714781	-0.000305687	2	4.04213e-06	2.18499e-08
2	0	0	1	1	35.4953	-0.0763093	-0.0764437	-0.000299187	2	4.01181e-06	2.28709e-08
2	0	0	1	1	35.5953	-0.0813095	-0.0815323	-0.000292628	2	3.98209e-06	2.38586e-08
2	0	0	1	1	35.6953	-0.0863097	-0.0865509	-0.000286446	2	3.95292e-06	2.47922e-08
2	0	0	1	1	35.7953	-0.0913099	-0.0914667	-0.000282196	2	3.9243e-06	2.58115e-08
2	0	0	1	1	35.8953	-0.0963101	-0.0964811	-0.000278458	2	3.89615e-06	2.6866e-08
2	0	0	0	1	35.9955	-0.10131	-0.101435	-0.000273664	2	3.86843e-06	2.77591e-08
2	0	0	0	1	36.0955	-0.10631	-0.106532	-0.000269174	2	3.84115e-06	2.86757e-08
2	0	0	0	1	36.1955	-0.111311	-0.111476	-0.000266161	2	3.81428e-06	2.96704e-08
2	0	0	0	1	36.2955	-0.116311	-0.116498	-0.000264463	2	3.78775e-06	3.08095e-08
2	0	0	0	1	36.3955	-0.121311	-0.121461	-0.000258023	2	3.76158e-06	3.13397e-08
2	0	0	0	1	36.4955	-0.126311	-0.126464	-0.0002552	2	3.73572e-06	3.22735e-08
2	0	0	0	1	36.5955	-0.131311	-0.131484	-0.000254059	2	3.71013e-06	3.34048e-08
2	0	0	0	1	36.6955	-0.136312	-0.136486	-0.000249692	2	3.68483e-06	3.40795e-08
2	0	0	0	1	36.7955	-0.141312	-0.141445	-0.000247811	2	3.65979e-06	3.50517e-08
2	0	0	0	1	36.8955	-0.146312	-0.146485	-0.000244939	2	3.63496e-06	3.58799e-08
2	0	0	0	1	36.9955	-0.151312	-0.151436	-0.000243208	2	3.61034e-06	3.68304e-08
2	0	0	0	1	37.0955	-0.156313	-0.15646	-0.000241205	2	3.58587e-06	3.77389e-08
2	0	0	0	1	37.1955	-0.161313	-0.16144	-0.000240265	2	3.56161e-06	3.87885e-08
2	0	0	0	1	37.2955	-0.166313	-0.166467	-0.000239483	2	3.53748e-06	3.9866e-08
2	0	0	0	1	37.3955	-0.171313	-0.171484	-0.000239165	2	3.51346e-06	4.10129e-08
2	0	0	0	1	37.4955	-0.176313	-0.176477	-0.000237573	2	3.48954e-06	4.19262e-08
2	0	0	0	1	37.5955	-0.181314	-0.181469	-0.000234634	2	3.46568e-06	4.25788e-08
2	0	0	0	1	37.6955	-0.186314	-0.186494	-0.000235953	2	3.44187e-06	4.40039e-08
2	0	0	0	1	37.7955	-0.191314	-0.191444	-0.000237464	2	3.41808e-06	4.5461e-08
2	0	0	0	1	37.8955	-0.196314	-0.196484	-0.000234498	2	3.39427e-06	4.6075e-08
2	1	0	1	0	37.9849	-0.199214	-0.199276	-0.000121339	2	3.37473e-06	2.418e-08
2	1	0	1	0	38.0849	-0.194214	-0.194326	-9.33363e-05	2	3.36459e-06	1.81377e-08
2	1	0	1	0	38.1849	-0.189214	-0.18936	-7.65714e-05	2	3.3564e-06	1.44995e-08
2	1	0	1	0	38.2849	-0.184214	-0.184316	-6.55632e-05	2	3.34942e-06	1.20843e-08
2	1	0	1	0	38.3849	-0.179213	-0.179327	-5.62967e-05	2	3.34338e-06	1.00955e-08
2	1	0	1	0	38.4849	-0.174213	-0.174304	-5.24336e-05	2	3.33811e-06	9.13938e-09
2	1	0	1	0	38.5849	-0.169213	-0.169337	-4.5232e-05	2	3.33347e-06	7.65946e-09
2	1	0	1	0	38.6849	-0.164213	-0.16435	-4.05917e-05	2	3.32943e-06	6.67126e-09
2	1	0	1	0	38.7849	-0.159213	-0.159308	-3.30103e-05	2	3.3259e-06	5.25882e-09
2	1	0	1	0	38.8849	-0.154212	-0.154295	-3.03961e-05	2	3.32286e-06	4.68996e-09
2	1	0	1	0	38.9849	-0.149212	-0.149316	-2.75009e-05	2	3.32021e-06	4.10632e-09
2	1	0	1	0	39.0849	-0.144212	-0.14431	-2.35266e-05	2	3.31794e-06	3.39511e-09
2	1	0	1	0	39.1849	-0.139212	-0.139347	-1.94709e-05	2	3.31605e-06	2.71322e-09
2	1	0	1	0	39.2849	-0.134212	-0.134297	-1.60194e-05	2	3.31449e-06	2.15135e-09
2	1	0	1	0	39.3849	-0.129211	-0.129311	-1.27462e-05	2	3.31325e-06	1.64823e-09
2	1	0	1	0	39.4849	-0.124211	-0.124371	-9.0633e-06	2	3.3123e-06	1.12721e-09
2	1	0	1	0	39.5849	-0.119211	-0.119308	-8.2066e-06	2	3.31164e-06	9.79111e-10
2	1	0	1	0	39.6849	-0.114211	-0.114326	-5.57114e-06	2	3.31126e-06	6.36927e-10
2	1	0	1	0	39.7849	-0.109211	-0.109287	-1.66564e-06	2	3.31112e-06	1.82033e-10
2	1	0	1	0	39.8849	-0.10421	-0.104353	5.07031e-07	2	3.31122e-06	-5.291e-11
2	1	0	1	0	39.9849	-0.0992102	-0.0994293	3.51344e-06	3	3.31154e-06	-3.49339e-10
2	1	0	0	0	40.0851	-0.09421	-0.094345	4.07515e-06	3	3.31207e-06	-3.8447e-10
2	1	0	0	0	40.1851	-0.0892098	-0.0893878	5.68257e-06	3	3.31283e-06	-5.07953e-10
2	1	0	0	0	40.2851	-0.0842096	-0.0843416	8.36396e-06	3	3.31377e-06	-7.0543e-10
2	1	0	0	0	40.3851	-0.0792094	-0.0793421	1.18968e-05	3	3.31491e-06	-9.43913e-10
2	1	0	0	0	40.4851	-0.0742092	-0.0743351	1.05472e-05	3	3.31622e-06	-7.84029e-10
2	1	0	0	0	40.5851	-0.069209	-0.0694002	1.23013e-05	3	3.31772e-06	-8.5371e-10
2	1	0	0	0	40.6851	-0.0642088	-0.0643042	1.65883e-05	3	3.31938e-06	-1.0667e-09
2	1	0	0	0	40.7851	-0.0592086	-0.0592941	1.71571e-05	3	3.32121e-06	-1.01731e-09
2	1	0	0	0	40.8851	-0.0542084	-0.0543284	1.94905e-05	3	3.32321e-06	-1.05889e-09
2	1	0	0	0	40.9851	-0.0492081	-0.0493225	2.05433e-05	3	3.32541e-06	-1.01325e-09
2	1	0	0	0	41.0851	-0.0442079	-0.044323	2.33077e-05	3	3.32776e-06	-1.03307e-09
2	1	0	0	0	41.1851	-0.0392077	-0.0393192	2.54344e-05	3	3.33029e-06	-1.00006e-09
2	1	0	0	0	41.2851	-0.0342075	-0.0343334	2.57912e-05	3	3.33302e-06	-8.85501e-10
2	1	0	0	0	41.3851	-0.0292073	-0.0293561	2.86192e-05	3	3.33597e-06	-8.4015e-10
2	1	0	0	0	41.4851	-0.0242071	-0.0243131	3.27208e-05	3	3.33919e-06	-7.95545e-10
2	1	0	0	0	41.5851	-0.0192069	-0.0193454	3.52273e-05	3	3.34271e-06	-6.81486e-10
2	1	0	0	0	41.6851	-0.0142067	-0.0143363	3.87636e-05	3	3.3466e-06	-5.55727e-10
2	1	0	0	0	41.7851	-0.00920652	-0.00935476	4.42112e-05	3	3.35095e-06	-4.13585e-10
2	1	0	0	0	41.8851	-0.00420631	-0.00432659	5.01569e-05	3	3.35588e-06	-2.17008e-10
2	1	0	0	0	41.9851	0.000793888	0.000684621	6.01988e-05	3	3.3616e-06	4.12134e-11
2	1	0	0	0	42.0851	0.00579409	0.00571279	6.96137e-05	3	3.36821e-06	3.97689e-10
2	1	0	0	0	42.1851	0.0107943	0.0106858	8.29412e-05	3	3.37603e-06	8.86296e-10
2	1	0	0	0	42.2851	0.0157945	0.015696	0.000100086	3	3.38543e-06	1.57095e-09
2	1	0	0	0	42.3851	0.0207947	0.0207517	0.000123476	3	3.3968e-06	2.56235e-09
2	1	0	0	0	42.4851	0.0257949	0.0257354	0.000149914	3	3.41066e-06	3.85809e-09
2	1	0	0	0	42.5851	0.0307951	0.0306374	0.000184036	3	3.42764e-06	5.63837e-09
2	1	0	0	0	42.6851	0.0357953	0.0356624	0.000227183	3	3.44837e-06	8.10189e-09
2	1	0	0	0	42.7851	0.0407955	0.0407181	0.000272797	3	3.47357e-06	1.11078e-08
2	1	0	0	0	42.8851	0.0457957	0.0456784	0.000328267	3	3.50385e-06	1.49947e-08
2	1	0	0	0	42.9851	0.0507959	0.0507087	0.000387162	3	3.53978e-06	1.96325e-08
2	1	0	0	0	43.0851	0.0557961	0.0556627	0.000445807	3	3.58166e-06	2.48148e-08
2	1	0	0	0	43.1851	0.0607963	0.0607057	0.000505991	3	3.62949e-06	3.07165e-08
2	1	0	0	0	43.2851	0.0657965	0.0657137	0.00055961	3	3.68296e-06	3.67741e-08
2	1	0	0	0	43.3851	0.0707967	0.0706496	0.000604021	3	3.7414e-06	4.26739e-08
2	1	0	0	0	43.4851	0.0757969	0.075698	0.0006402	3	3.80388e-06	4.84618e-08
2	1	0	0	0	43.5851	0.0807971	0.080689	0.000663911	3	3.86928e-06	5.35703e-08
2	1	0	0	0	43.6851	0.0857973	0.0857098	0.000674627	3	3.93641e-06	5.78221e-08
2	1	0	0	0	43.7851	0.0907975	0.0906807	0.000674931	3	4.0042e-06	6.12032e-08
2	1	0	0	0	43.8851	0.0957977	0.09564	0.000669088	3	4.07167e-06	6.39915e-08
2	1	0	0	0	43.9851	0.100798	0.100647	0.000656485	3	4.13813e-06	6.60732e-08
2	1	0	0	0	44.0851	0.105798	0.105678	0.000638077	3	4.20307e-06	6.74309e-08
2	1	0	0	0	44.1851	0.110798	0.110686	0.000618968	3	4.2662e-06	6.85113e-08
2	1	0	0	0	44.2851	0.115798	0.115724	0.000600806	3	4.32738e-06	6.95277e-08
2	1	0	0	0	44.3851	0.120799	0.120654	0.000581347	3	4.38653e-06	7.01417e-08
2	1	0	0	0	44.4851	0.125799	0.125639	0.000559511	3	4.44373e-06	7.02966e-08
2	1	0	0	0	44.5851	0.130799	0.130672	0.000541771	3	4.49907e-06	7.07942e-08
2	1	0	0	0	44.6851	0.135799	0.135675	0.000525266	3	4.55266e-06	7.12652e-08
2	1	0	0	0	44.7851	0.1408	0.140692	0.000510633	3	4.60463e-06	7.1842e-08
2	1	0	0	0	44.8851	0.1458	0.145649	0.000494651	3	4.6551e-06	7.20455e-08
2	1	0	1	0	44.9853	0.1508	0.150648	0.000482765	3	4.7043e-06	7.27274e-08
2	1	0	1	0	45.0853	0.1558	0.155711	0.000470029	3	4.7522e-06	7.31886e-08
2	1	0	1	0	45.1853	0.1608	0.160711	0.000460616	3	4.79893e-06	7.40263e-08
2	1	0	1	0	45.2853	0.165801	0.165692	0.000450482	3	4.84464e-06	7.46413e-08
2	1	0	1	0	45.3853	0.170801	0.170684	0.000441253	3	4.88939e-06	7.53148e-08
2	1	0	1	0	45.4853	0.175801	0.175631	0.000432764	3	4.93327e-06	7.60065e-08
2	1	0	1	0	45.5853	0.180801	0.180703	0.000425039	3	4.97638e-06	7.6806e-08
2	1	0	1	0	45.6853	0.185801	0.185623	0.000418268	3	5.01875e-06	7.76404e-08
2	1	0	1	0	45.7853	0.190802	0.190646	0.000411664	3	5.06047e-06	7.84822e-08
2	1	0	1	0	45.8853	0.195802	0.195671	0.00040661	3	5.10161e-06	7.95619e-08
2	1	0	1	0	45.9853	0.200802	0.200671	0.000400013	3	5.14219e-06	8.02709e-08
2	1	0	1	0	46.0853	0.205802	0.205659	0.000395323	3	5.1823e-06	8.13016e-08
2	1	0	1	0	46.1853	0.210802	0.210659	0.000392265	3	5.22196e-06	8.26343e-08
2	1	0	1	0	46.2853	0.215803	0.21571	0.000389035	3	5.26121e-06	8.39185e-08
2	1	0	1	0	46.3853	0.220803	0.220708	0.000386263	3	5.30012e-06	8.52514e-08
2	1	0	1	0	46.4853	0.225803	0.225684	0.000381437	3	5.33872e-06	8.60844e-08
2	1	0	1	0	46.5853	0.230803	0.230673	0.000379452	3	5.37703e-06	8.75294e-08
2	1	0	1	0	46.6853	0.235803	0.235682	0.000376158	3	5.4151e-06	8.86537e-08
2	1	0	1	0	46.7853	0.240804	0.240601	0.000376711	3	5.45298e-06	9.06371e-08
2	1	0	1	0	46.8853	0.245804	0.245615	0.00037461	3	5.4907e-06	9.20098e-08
2	1	0	1	0	46.9853	0.250804	0.250679	0.000373337	3	5.52829e-06	9.35876e-08
2	1	0	1	0	47.0853	0.255804	0.255643	0.000373469	3	5.56584e-06	9.54749e-08
2	1	0	1	0	47.1853	0.260804	0.260698	0.000373444	3	5.60332e-06	9.73563e-08
2	1	0	1	0	47.2853	0.265805	0.265703	0.00037386	3	5.64081e-06	9.93356e-08
2	1	0	1	0	47.3853	0.270805	0.270653	0.000373328	3	5.67837e-06	1.01042e-07
2	1	0	1	0	47.4853	0.275805	0.27566	0.000375811	3	5.71601e-06	1.03596e-07
2	1	0	1	0	47.5853	0.280805	0.280689	0.000378811	3	5.75381e-06	1.06328e-07
2	1	0	1	0	47.6853	0.285805	0.285658	0.000378698	3	5.79181e-06	1.08178e-07
2	1	0	1	0	47.7853	0.290806	0.290666	0.000381254	3	5.83007e-06	1.10817e-07
2	1	0	1	0	47.8853	0.295806	0.295646	0.000385009	3	5.86864e-06	1.13826e-07
2	0	0	1	0	47.9749	0.299706	0.299546	0.000290955	3	5.90289e-06	8.71547e-08
2	0	0	1	0	48.0749	0.294706	0.294539	0.000247762	3	5.92912e-06	7.29756e-08
2	0	0	1	0	48.1749	0.289706	0.289515	0.000227968	3	5.95261e-06	6.60002e-08
2	0	0	1	0	48.2749	0.284705	0.284547	0.0002137	3	5.97435e-06	6.08077e-08
2	0	0	1	0	48.3749	0.279705	0.27953	0.000200594	3	5.99476e-06	5.6072e-08
2	0	0	1	0	48.4749	0.274705	0.274512	0.000191016	3	6.01407e-06	5.24362e-08
2	0	0	1	0	48.5749	0.269705	0.269505	0.000182398	3	6.03246e-06	4.91571e-08
2	0	0	1	0	48.6749	0.264705	0.264577	0.000174405	3	6.05006e-06	4.61436e-08
2	0	0	1	0	48.7749	0.259704	0.259539	0.000168127	3	6.06695e-06	4.36357e-08
2	0	0	1	0	48.8749	0.254704	0.254486	0.000162028	3	6.08321e-06	4.12338e-08
2	0	0	1	0	48.9749	0.249704	0.249501	0.000157743	3	6.09892e-06	3.9357e-08
2	0	0	1	0	49.0749	0.244704	0.244569	0.000150393	3	6.11414e-06	3.67815e-08
2	0	0	1	0	49.1749	0.239703	0.239537	0.000146471	3	6.12887e-06	3.50853e-08
2	0	0	1	0	49.2749	0.234703	0.234546	0.000143119	3	6.14319e-06	3.35679e-08
2	0	0	1	0	49.3749	0.229703	0.229511	0.000137549	3	6.1571e-06	3.15691e-08
2	0	0	1	0	49.4749	0.224703	0.224502	0.000134398	3	6.17062e-06	3.01727e-08
2	0	0	1	0	49.5749	0.219703	0.219516	0.000131918	3	6.18379e-06	2.89581e-08
2	0	0	1	0	49.6749	0.214702	0.214527	0.000129661	3	6.19659e-06	2.78156e-08
2	0	0	1	0	49.7749	0.209702	0.20956	0.000125497	3	6.20908e-06	2.62992e-08
2	0	0	1	0	49.8749	0.204702	0.204507	0.00012156	3	6.22124e-06	2.48599e-08
2	0	0	1	0	49.9749	0.199702	0.199526	0.000118545	3	6.23307e-06	2.36527e-08
2	0	0	1	0	50.0749	0.194702	0.194516	0.000117386	3	6.24459e-06	2.28334e-08
2	0	0	1	0	50.1749	0.189701	0.189536	0.000111548	3	6.25581e-06	2.11424e-08
2	0	0	1	0	50.2749	0.184701	0.18454	0.000109752	3	6.26673e-06	2.02535e-08
2	0	0	1	0	50.3749	0.179701	0.179566	0.000106139	3	6.27735e-06	1.9059e-08
2	0	0	1	0	50.4749	0.174701	0.174559	0.000103688	3	6.28766e-06	1.80996e-08
2	0	0	1	0	50.5749	0.169701	0.169508	0.000100247	3	6.29766e-06	1.69926e-08
2	0	0	1	0	50.6749	0.1647	0.164527	9.72773e-05	3	6.30735e-06	1.60047e-08
2	0	0	1	0	50.7749	0.1597	0.159534	9.39688e-05	3	6.31672e-06	1.49912e-08
2	0	0	1	0	50.8749	0.1547	0.154524	8.97365e-05	3	6.32576e-06	1.38664e-08
2	0	0	1	0	50.9749	0.1497	0.149499	8.80143e-05	3	6.3344e-06	1.3158e-08
2	0	0	0	0	51.0751	0.1447	0.144558	8.2035e-05	3	6.34273e-06	1.18588e-08
2	0	0	0	0	51.1751	0.139699	0.139495	7.8451e-05	3	6.35063e-06	1.09435e-08
2	0	0	0	0	51.2751	0.134699	0.134543	7.46162e-05	3	6.35809e-06	1.00391e-08
2	0	0	0	0	51.3751	0.129699	0.129544	6.84126e-05	3	6.36506e-06	8.86242e-09
2	0	0	0	0	51.4751	0.124699	0.124515	6.30286e-05	3	6.37146e-06	7.84798e-09
2	0	0	0	0	51.5751	0.119699	0.119485	5.63728e-05	3	6.37723e-06	6.73573e-09
2	0	0	0	0	51.6751	0.114698	0.114615	4.83251e-05	3	6.38225e-06	5.53879e-09
2	0	0	0	0	51.7751	0.109698	0.109519	3.69442e-05	3	6.38635e-06	4.0461e-09
2	0	0	0	0	51.8751	0.104698	0.104569	2.70948e-05	3	6.38939e-06	2.83329e-09
2	0	0	0	0	51.9751	0.0996979	0.0995985	1.07839e-05	3	6.3911e-06	1.07406e-09
2	0	0	0	0	52.0751	0.0946977	0.0945809	-6.08163e-06	3	6.39119e-06	-5.75206e-10
2	0	0	0	0	52.1751	0.0896975	0.0895199	-2.83206e-05	3	6.38929e-06	-2.53525e-09
2	0	0	0	0	52.2751	0.0846973	0.0845373	-5.70316e-05	3	6.38492e-06	-4.82129e-09
2	0	0	0	0	52.3751	0.0796971	0.0795515	-8.97434e-05	3	6.37754e-06	-7.13923e-09
2	0	0	0	0	52.4751	0.0746969	0.074606	-0.00012944	3	6.3665e-06	-9.65698e-09
2	0	0	0	0	52.5751	0.0696967	0.0695355	-0.000176145	3	6.35113e-06	-1.22483e-08
2	0	0	0	0	52.6751	0.0646964	0.0646144	-0.00023014	3	6.33074e-06	-1.48704e-08
2	0	0	0	0	52.7751	0.0596963	0.0595756	-0.000288424	3	6.30463e-06	-1.7183e-08
2	0	0	0	0	52.8751	0.0546961	0.0545241	-0.00035256	3	6.27238e-06	-1.9223e-08
2	0	0	0	0	52.9751	0.0496959	0.049567	-0.000416799	3	6.23372e-06	-2.06594e-08
2	0	0	0	0	53.0751	0.0446957	0.0445632	-0.00047498	3	6.18884e-06	-2.11666e-08
2	0	0	0	0	53.1751	0.0396955	0.0395456	-0.00052714	3	6.13841e-06	-2.08461e-08
2	0	0	0	0	53.2751	0.0346953	0.0345514	-0.000566137	3	6.08336e-06	-1.95608e-08
2	0	0	0	0	53.3751	0.0296951	0.0295868	-0.000591642	3	6.02509e-06	-1.75048e-08
2	0	0	0	0	53.4751	0.0246949	0.0245024	-0.000603309	3	5.965e-06	-1.47825e-08
2	0	0	0	0	53.5751	0.0196946	0.0195326	-0.000600276	3	5.90447e-06	-1.17249e-08
2	0	0	0	0	53.6751	0.0146944	0.0145267	-0.000588341	3	5.8447e-06	-8.54662e-09
2	0	0	0	0	53.7751	0.00969425	0.00949531	-0.000568956	3	5.78653e-06	-5.40242e-09
2	0	0	0	0	53.8751	0.00469405	0.00453393	-0.000545852	3	5.73057e-06	-2.47485e-09
2	0	0	0	0	53.9751	-0.000306156	-0.000410488	-0.000520504	3	5.67707e-06	2.1366e-10
2	0	0	0	0	54.0751	-0.00530636	-0.00550863	-0.000494716	3	5.62602e-06	2.72521e-09
2	0	0	0	0	54.1751	-0.0103066	-0.0105135	-0.000470029	3	5.57749e-06	4.94164e-09
2	0	0	0	0	54.2751	-0.0153068	-0.015478	-0.00044944	3	5.53127e-06	6.95645e-09
2	0	0	0	0	54.3751	-0.020307	-0.0204765	-0.000427973	3	5.4872e-06	8.7634e-09
2	0	0	0	0	54.4751	-0.0253072	-0.0255386	-0.000411037	3	5.44505e-06	1.04973e-08
2	0	0	0	0	54.5751	-0.0303074	-0.0305053	-0.000393382	3	5.40461e-06	1.20002e-08
2	0	0	0	0	54.6751	-0.0353076	-0.0354561	-0.000379468	3	5.36571e-06	1.34544e-08
2	0	0	0	0	54.7751	-0.0403078	-0.0404779	-0.000366305	3	5.32819e-06	1.48272e-08
2	0	0	0	0	54.8751	-0.045308	-0.0454912	-0.00035435	3	5.29191e-06	1.61198e-08
2	0	0	0	0	54.9751	-0.0503082	-0.0504484	-0.000343295	3	5.25672e-06	1.73187e-08
2	0	0	0	0	55.0751	-0.0553084	-0.0555031	-0.000334596	3	5.2225e-06	1.85711e-08
2	0	0	0	0	55.1751	-0.0603086	-0.0604952	-0.000327417	3	5.1892e-06	1.98072e-08
2	0	0	0	0	55.2751	-0.0653088	-0.065482	-0.000318691	3	5.15671e-06	2.08685e-08
2	0	0	0	0	55.3751	-0.070309	-0.0704508	-0.00031128	3	5.12498e-06	2.19299e-08
2	0	0	0	0	55.4751	-0.0753092	-0.0754885	-0.000306086	3	5.09393e-06	2.3106e-08
2	0	0	0	0	55.5751	-0.0803094	-0.0804404	-0.000299865	3	5.06348e-06	2.41213e-08
2	0	0	0	0	55.6751	-0.0853096	-0.0854325	-0.000292927	3	5.03364e-06	2.50255e-08
2	0	0	0	0	55.7751	-0.0903098	-0.0905243	-0.000288216	3	5.00433e-06	2.60905e-08
2	0	0	0	0	55.8751	-0.09531	-0.0954825	-0.000284096	3	4.97552e-06	2.71262e-08
2	0	0	1	0	55.9753	-0.10031	-0.100486	-0.000277808	3	4.94713e-06	2.79159e-08
2	0	0	1	0	56.0753	-0.10531	-0.105488	-0.000274519	3	4.91921e-06	2.89585e-08
2	0	0	1	0	56.1753	-0.110311	-0.110461	-0.000270456	3	4.89171e-06	2.98749e-08
2	0	0	1	0	56.2753	-0.115311	-0.115415	-0.000267233	3	4.86458e-06	3.08426e-08
2	0	0	1	0	56.3753	-0.120311	-0.120497	-0.000263636	3	4.83781e-06	3.17674e-08
2	0	0	1	0	56.4753	-0.125311	-0.125476	-0.000259219	3	4.81135e-06	3.25256e-08
2	0	0	1	0	56.5753	-0.130311	-0.130434	-0.000257507	3	4.78521e-06	3.35876e-08
2	0	0	1	0	56.6753	-0.135312	-0.135489	-0.000254407	3	4.75937e-06	3.44695e-08
2	0	0	1	0	56.7753	-0.140312	-0.140452	-0.0002526	3	4.73379e-06	3.54781e-08
2	0	0	1	0	56.8753	-0.145312	-0.145454	-0.000249044	3	4.70844e-06	3.62244e-08
2	0	0	1	0	56.9753	-0.150312	-0.150499	-0.000247516	3	4.68331e-06	3.72509e-08
2	0	0	1	0	57.0753	-0.155312	-0.155444	-0.000246584	3	4.65838e-06	3.833e-08
2	0	0	1	0	57.1753	-0.160313	-0.160463	-0.000244388	3	4.63364e-06	3.92152e-08
2	0	0	1	0	57.2753	-0.165313	-0.16552	-0.000242871	3	4.60906e-06	4.01998e-08
2	0	0	1	0	57.3753	-0.170313	-0.170461	-0.000240825	3	4.58461e-06	4.10513e-08
2	0	0	1	0	57.4753	-0.175313	-0.175455	-0.000240802	3	4.56028e-06	4.225e-08
2	0	0	1	0	57.5753	-0.180313	-0.180484	-0.000240758	3	4.53602e-06	4.3453e-08
2	0	0	1	0	57.6753	-0.185314	-0.185451	-0.000239928	3	4.51182e-06	4.44948e-08
2	0	0	1	0	57.7753	-0.190314	-0.19043	-0.000238345	3	4.48765e-06	4.53881e-08
2	0	0	1	0	57.8753	-0.195314	-0.195418	-0.000239131	3	4.46348e-06	4.67306e-08
2	1	0	1	1	57.9692	-0.199989	-0.200063	-0.000238599	3	4.44077e-06	4.77348e-08
2	1	0	0	1	58.0647	-0.195214	-0.19532	-9.94251e-05	3	4.43032e-06	1.94197e-08
2	1	0	0	1	58.1647	-0.190214	-0.190324	-8.4068e-05	3	4.4216e-06	1.60002e-08
2	1	0	0	1	58.2647	-0.185214	-0.185268	-7.23886e-05	3	4.41414e-06	1.34113e-08
2	1	0	0	1	58.3647	-0.180213	-0.180322	-6.36449e-05	3	4.40765e-06	1.14766e-08
2	1	0	0	1	58.4647	-0.175213	-0.175357	-5.61466e-05	3	4.40197e-06	9.84567e-09
2	1	0	0	1	58.5647	-0.170213	-0.170286	-5.18401e-05	3	4.39694e-06	8.82764e-09
2	1	0	0	1	58.6647	-0.165213	-0.165348	-4.44001e-05	3	4.39251e-06	7.34145e-09
2	1	0	0	1	58.7647	-0.160213	-0.160321	-3.92104e-05	3	4.38858e-06	6.28624e-09
2	1	0	0	1	58.8647	-0.155212	-0.155284	-3.50911e-05	3	4.38513e-06	5.4491e-09
2	1	0	0	1	58.9647	-0.150212	-0.150305	-3.23055e-05	3	4.38213e-06	4.85568e-09
2	1	0	0	1	59.0647	-0.145212	-0.145316	-2.89423e-05	3	4.3795e-06	4.20578e-09
2	1	0	0	1	59.1647	-0.140212	-0.140299	-2.37173e-05	3	4.37724e-06	3.32752e-09
2	1	0	0	1	59.2647	-0.135212	-0.13534	-2.1262e-05	3	4.37531e-06	2.8776e-09
2	1	0	0	1	59.3647	-0.130211	-0.130286	-1.83722e-05	3	4.3737e-06	2.39365e-09
2	1	0	0	1	59.4647	-0.125211	-0.125319	-1.44119e-05	3	4.3724e-06	1.80609e-09
2	1	0	0	1	59.5647	-0.120211	-0.120307	-1.09622e-05	3	4.37139e-06	1.31883e-09
2	1	0	0	1	59.6647	-0.115211	-0.115327	-9.18165e-06	3	4.37066e-06	1.05889e-09
2	1	0	0	1	59.7647	-0.110211	-0.11038	-6.74932e-06	3	4.37018e-06	7.44993e-10
2	1	0	0	1	59.8647	-0.10521	-0.105332	-5.10304e-06	3	4.36995e-06	5.37514e-10
2	1	0	0	1	59.9647	-0.10021	-0.10036	-3.12998e-06	3	4.36995e-06	3.14125e-10
2	1	0	1	1	60.0649	-0.09521	-0.0953266	3.88682e-07	3	4.37015e-06	-3.70518e-11
2	1	0	1	1	60.1649	-0.0902098	-0.090361	1.65342e-06	3	4.37057e-06	-1.49405e-10
2	1	0	1	1	60.2649	-0.0852096	-0.0853286	3.978e-06	3	4.3712e-06	-3.39437e-10
2	1	0	1	1	60.3649	-0.0802094	-0.0803513	6.56224e-06	3	4.372e-06	-5.27284e-10
2	1	0	1	1	60.4649	-0.0752092	-0.0753581	7.89586e-06	3	4.37301e-06	-5.95018e-10
2	1	0	0	1	60.5286	-0.0719841	-0.0722689	2.35998e-06	3	4.37374e-06	-1.70553e-10