File: AutoAnalysis Examples/EC/C003C-20ppb-B_C01.mpt
EC-Lab ASCII FILE
Nb header lines : 59

Cyclic Voltammetry

Run on channel : 1 (SN 22398)
User :
CE vs. WE compliance from -10 V to 10 V
Electrode connection : standard
Ewe ctrl range : min = -1.00 V, max = 1.00 V
Safety Limits :
	Ewe min = -2.00 V
	Ewe max = 2.00 V
	|I| = 50.000 mA
	for t > 10 ms
Acquisition started on : 11/21/2018 11:33:11
Technique started on : 11/21/2018 11:33:11
Saved on :
	File : C003C-20ppb-B_C01.mpr
	Directory : \\ECCOMPUTER\Users\Lab User\Google Drive\Electrochemical Data\EC-Lab\Data\FREDsense\Tim\2018.11.21 - EC comparison to High Throughput\
	Host : 172.16.1.30
Device : SP-50 (SN 0301030103010301)
Address : USB
EC-Lab for windows v11.02 (software)
Internet server v11.02 (firmware)
Command interpretor v11.02 (firmware)
Electrode material : Au/Pd
Initial state :
Electrolyte : NaCl (0.2M)
Comments : Fe(CN)63-/Fe(CN)64- 5.10-3 M
Reference electrode : SCE Saturated Calomel Electrode (0.241 V)
Electrode surface area : 0.001 cm²
Characteristic mass : 0.001 g
Equivalent Weight : 0.000 g/eq.
Density : 0.000 g/cm3
Cycle Definition : Charge/Discharge alternance
Ei (V)              -0.100
vs.                 Ref
dE/dt               50.000
dE/dt unit          mV/s
E1 (V)              0.300
vs.                 Ref
Step percent        50
N                   10
E range min (V)     -1.000
E range max (V)     1.000
I Range             Auto
I Range min         Unset
I Range max         Unset
I Range init        Unset
Bandwidth           5
E2 (V)              -0.200
vs.                 Ref
nc cycles           2
Reverse Scan        1
Ef (V)              0.000
vs.                 Eoc

mode	ox/red	error	control changes	counter inc.	time/s	control/V	Ewe/V	<I>/mA	cycle number	(Q-Qo)/C	P/W
2	1	0	1	0	0.000000000000000E+000	-0.0984851	-0.098793	-8.06846e-05	1	0.0000000E+000	7.97107e-09
2	1	0	0	0	0.111	-0.0929349	-0.0931363	-9.74694e-06	1	6.46593e-11	9.07794e-10
2	1	0	1	0	0.2265	-0.0871597	-0.087403	2.64783e-05	1	3.68887e-09	-2.31429e-09
2	1	0	1	0	0.3265	-0.0821595	-0.0823982	3.37612e-05	1	7.07856e-09	-2.78186e-09
2	1	0	1	0	0.4265	-0.0771593	-0.0774347	3.85817e-05	1	1.10527e-08	-2.98756e-09
2	1	0	1	0	0.5265	-0.0721591	-0.0724277	4.22611e-05	1	1.54456e-08	-3.06087e-09
2	1	0	1	0	0.6265	-0.0671589	-0.0673963	4.58486e-05	1	2.01656e-08	-3.09003e-09
2	1	0	1	0	0.7265	-0.0621587	-0.0623767	4.80831e-05	1	2.51894e-08	-2.99927e-09
2	1	0	1	0	0.8265	-0.0571585	-0.0574015	5.10366e-05	1	3.04755e-08	-2.92957e-09
2	1	0	1	0	0.9265	-0.0521583	-0.0524242	5.56239e-05	1	3.60154e-08	-2.91604e-09
2	1	0	1	0	1.0265	-0.0471581	-0.0473865	5.66343e-05	1	4.18346e-08	-2.6837e-09
2	1	0	1	0	1.1265	-0.0421579	-0.0423668	5.86497e-05	1	4.79121e-08	-2.4848e-09
2	1	0	1	0	1.2265	-0.0371577	-0.037381	6.084e-05	1	5.43125e-08	-2.27426e-09
2	1	0	1	0	1.3265	-0.0321575	-0.032426	6.5143e-05	1	6.10602e-08	-2.11233e-09
2	1	0	1	0	1.4265	-0.0271573	-0.0274031	7.08378e-05	1	6.82308e-08	-1.94118e-09
2	1	0	1	0	1.5265	-0.022157	-0.0223771	7.68471e-05	1	7.5942e-08	-1.71961e-09
2	1	0	1	0	1.6265	-0.0171568	-0.0173712	8.32115e-05	1	8.43414e-08	-1.44548e-09
2	1	0	1	0	1.7265	-0.0121566	-0.0124395	9.5094e-05	1	9.36059e-08	-1.18292e-09
2	1	0	1	0	1.8265	-0.00715643	-0.00743992	0.000107879	1	1.04037e-07	-8.02613e-10
2	1	0	1	0	1.9265	-0.00215623	-0.00237359	0.000125259	1	1.16022e-07	-2.97312e-10
2	1	0	1	0	2.0265	0.00284397	0.00266837	0.000149586	1	1.30135e-07	3.99149e-10
2	1	0	1	0	2.1265	0.00784417	0.00763293	0.000181361	1	1.46943e-07	1.38432e-09
2	1	0	1	0	2.2265	0.0128444	0.0125996	0.000222601	1	1.6736e-07	2.80469e-09
2	1	0	1	0	2.3265	0.0178446	0.0176564	0.000277616	1	1.92588e-07	4.90169e-09
2	1	0	1	0	2.4265	0.0228448	0.0226252	0.00034742	1	2.2398e-07	7.86045e-09
2	1	0	1	0	2.5265	0.027845	0.0276428	0.000432235	1	2.6325e-07	1.19482e-08
2	1	0	1	0	2.6265	0.0328452	0.0326635	0.000544748	1	3.12344e-07	1.77934e-08
2	1	0	1	0	2.7265	0.0378454	0.0376122	0.000674301	1	3.73377e-07	2.53619e-08
2	1	0	1	0	2.8265	0.0428456	0.0426298	0.000824964	1	4.48502e-07	3.5168e-08
2	1	0	1	0	2.9265	0.0478458	0.0476028	0.000992264	1	5.3961e-07	4.72345e-08
2	1	0	1	0	3.0265	0.052846	0.0526479	0.001175	1	6.48346e-07	6.18615e-08
2	1	0	1	0	3.1265	0.0578462	0.0576284	0.00135559	1	7.75286e-07	7.81206e-08
2	1	0	1	0	3.2265	0.0628464	0.0626502	0.0015316	1	9.20196e-07	9.59551e-08
2	1	0	1	0	3.3265	0.0678466	0.0676529	0.00168991	1	1.08189e-06	1.14328e-07
2	1	0	1	0	3.4265	0.0728468	0.0726472	0.00182135	1	1.25807e-06	1.32316e-07
2	1	0	1	0	3.5265	0.077847	0.0776425	0.0019205	1	1.44584e-06	1.49113e-07
2	1	0	1	0	3.6265	0.0828472	0.082748	0.00198527	1	1.64179e-06	1.64277e-07
2	1	0	1	0	3.7265	0.0878474	0.0876787	0.00201819	1	1.84251e-06	1.76952e-07
2	1	0	1	0	3.8265	0.0928476	0.0926782	0.00201945	1	2.04493e-06	1.87159e-07
2	1	0	1	0	3.9265	0.0978478	0.0976555	0.0019989	1	2.2464e-06	1.95204e-07
2	1	0	1	0	4.0265	0.102848	0.102652	0.0019623	1	2.44491e-06	2.01433e-07
2	1	0	1	0	4.1265	0.107848	0.107651	0.00191333	1	2.63911e-06	2.05973e-07
2	1	0	1	0	4.2265	0.112848	0.112655	0.00186057	1	2.8281e-06	2.09602e-07
2	1	0	1	0	4.3265	0.117849	0.117652	0.00180151	1	3.01149e-06	2.11951e-07
2	1	0	1	0	4.4265	0.122849	0.122643	0.0017453	1	3.18912e-06	2.14049e-07
2	1	0	1	0	4.5265	0.127849	0.127659	0.00168929	1	3.36109e-06	2.15654e-07
2	1	0	1	0	4.6265	0.132849	0.132663	0.00163689	1	3.52763e-06	2.17155e-07
2	1	0	1	0	4.7265	0.137849	0.137674	0.00158639	1	3.68907e-06	2.18405e-07
2	1	0	1	0	4.8265	0.14285	0.142649	0.00154169	1	3.84577e-06	2.19921e-07
2	1	0	0	0	4.9267	0.14785	0.147665	0.00150025	1	3.99836e-06	2.21534e-07
2	1	0	0	0	5.0267	0.15285	0.152685	0.00146405	1	4.14662e-06	2.23539e-07
2	1	0	0	0	5.1267	0.15785	0.157684	0.00142563	1	4.29121e-06	2.24799e-07
2	1	0	0	0	5.2267	0.16285	0.162675	0.00139178	1	4.43236e-06	2.26408e-07
2	1	0	0	0	5.3267	0.167851	0.167649	0.00136283	1	4.57034e-06	2.28477e-07
2	1	0	0	0	5.4267	0.172851	0.172662	0.00133429	1	4.70537e-06	2.30382e-07
2	1	0	0	0	5.5267	0.177851	0.177673	0.00130599	1	4.83767e-06	2.32039e-07
2	1	0	0	0	5.6267	0.182851	0.182648	0.00128312	1	4.96742e-06	2.34359e-07
2	1	0	0	0	5.7267	0.187851	0.18764	0.00125965	1	5.09482e-06	2.3636e-07
2	1	0	0	0	5.8267	0.192852	0.192701	0.0012402	1	5.22007e-06	2.38988e-07
2	1	0	0	0	5.9267	0.197852	0.197723	0.00121952	1	5.34332e-06	2.41127e-07
2	1	0	0	0	6.0267	0.202852	0.202743	0.00120268	1	5.46471e-06	2.43836e-07
2	1	0	0	0	6.1267	0.207852	0.207681	0.00118732	1	5.58444e-06	2.46584e-07
2	1	0	0	0	6.2267	0.212852	0.21271	0.00117219	1	5.70259e-06	2.49337e-07
2	1	0	0	0	6.3267	0.217853	0.217695	0.00115724	1	5.81927e-06	2.51925e-07
2	1	0	0	0	6.4267	0.222853	0.222689	0.0011443	1	5.93459e-06	2.54824e-07
2	1	0	0	0	6.5267	0.227853	0.227657	0.00113196	1	6.04861e-06	2.57698e-07
2	1	0	0	0	6.6267	0.232853	0.232683	0.00111935	1	6.16143e-06	2.60454e-07
2	1	0	0	0	6.7267	0.237853	0.237694	0.00110861	1	6.27312e-06	2.63509e-07
2	1	0	0	0	6.8267	0.242854	0.242727	0.00109758	1	6.38372e-06	2.66413e-07
2	1	0	0	0	6.9267	0.247854	0.247685	0.00108926	1	6.49335e-06	2.69794e-07
2	1	0	0	0	7.0267	0.252854	0.252649	0.00108208	1	6.60214e-06	2.73386e-07
2	1	0	0	0	7.1267	0.257854	0.257686	0.0010732	1	6.71025e-06	2.7655e-07
2	1	0	0	0	7.2267	0.262854	0.262676	0.00106548	1	6.81751e-06	2.79876e-07
2	1	0	0	0	7.3267	0.267855	0.2677	0.0010596	1	6.92409e-06	2.83654e-07
2	1	0	0	0	7.4267	0.272855	0.272709	0.00105404	1	7.03003e-06	2.87447e-07
2	1	0	0	0	7.5267	0.277855	0.277711	0.00104392	1	7.13519e-06	2.89907e-07
2	1	0	0	0	7.6267	0.282855	0.282725	0.00103791	1	7.23957e-06	2.93444e-07
2	1	0	0	0	7.7267	0.287855	0.287734	0.00103176	1	7.34334e-06	2.96873e-07
2	1	0	0	0	7.8267	0.292856	0.292699	0.00102848	1	7.44659e-06	3.01036e-07
2	1	0	0	0	7.9267	0.297856	0.297735	0.00102357	1	7.5494e-06	3.04754e-07
2	0	0	1	0	8.0153	0.297706	0.297498	0.000902439	1	7.63525e-06	2.68474e-07
2	0	0	1	0	8.1153	0.292706	0.292537	0.000856414	1	7.72277e-06	2.50533e-07
2	0	0	1	0	8.2153	0.287705	0.287487	0.000825568	1	7.80656e-06	2.3734e-07
2	0	0	1	0	8.3153	0.282705	0.282505	0.000800404	1	7.88754e-06	2.26118e-07
2	0	0	1	0	8.4153	0.277705	0.277537	0.00077778	1	7.96617e-06	2.15863e-07
2	0	0	1	0	8.5153	0.272705	0.272531	0.000758671	1	8.0428e-06	2.06761e-07
2	0	0	1	0	8.6153	0.267705	0.267532	0.000742572	1	8.11762e-06	1.98661e-07
2	0	0	1	0	8.7153	0.262704	0.262486	0.000730089	1	8.19094e-06	1.91638e-07
2	0	0	1	0	8.8153	0.257704	0.25754	0.000714438	1	8.2629e-06	1.83996e-07
2	0	0	1	0	8.9153	0.252704	0.25252	0.000700482	1	8.33346e-06	1.76886e-07
2	0	0	1	0	9.0153	0.247704	0.24747	0.000688515	1	8.40277e-06	1.70387e-07
2	0	0	1	0	9.1153	0.242704	0.242512	0.000677522	1	8.47091e-06	1.64307e-07
2	0	0	1	0	9.2153	0.237703	0.237537	0.000666389	1	8.53796e-06	1.58292e-07
2	0	0	1	0	9.3153	0.232703	0.232518	0.000658014	1	8.60394e-06	1.53e-07
2	0	0	1	0	9.4153	0.227703	0.227538	0.000647773	1	8.66901e-06	1.47393e-07
2	0	0	1	0	9.5153	0.222703	0.222488	0.000639497	1	8.73318e-06	1.4228e-07
2	0	0	1	0	9.6153	0.217703	0.217539	0.000630098	1	8.79642e-06	1.37071e-07
2	0	0	1	0	9.7153	0.212702	0.212522	0.000620916	1	8.85873e-06	1.31958e-07
2	0	0	1	0	9.8153	0.207702	0.207493	0.000612597	1	8.92014e-06	1.2711e-07
2	0	0	1	0	9.9153	0.202702	0.202509	0.000604001	1	8.98067e-06	1.22316e-07
2	0	0	1	0	10.0153	0.197702	0.197463	0.000593672	1	9.04035e-06	1.17228e-07
2	0	0	1	0	10.1153	0.192702	0.192555	0.000585822	1	9.09918e-06	1.12803e-07
2	0	0	1	0	10.2153	0.187701	0.187447	0.000578844	1	9.15713e-06	1.08502e-07
2	0	0	1	0	10.3153	0.182701	0.182502	0.000569364	1	9.2142e-06	1.0391e-07
2	0	0	1	0	10.4153	0.177701	0.177492	0.00056032	1	9.2704e-06	9.94523e-08
2	0	0	1	0	10.5153	0.172701	0.172506	0.00054986	1	9.32573e-06	9.48542e-08
2	0	0	1	0	10.6153	0.167701	0.167553	0.000541146	1	9.38014e-06	9.06708e-08
2	0	0	1	0	10.7153	0.1627	0.162528	0.000531864	1	9.43358e-06	8.64429e-08
2	0	0	1	0	10.8153	0.1577	0.157555	0.000521129	1	9.48604e-06	8.21067e-08
2	0	0	1	0	10.9153	0.1527	0.15252	0.00050857	1	9.53747e-06	7.7567e-08
2	0	0	1	0	11.0153	0.1477	0.147469	0.000499033	1	9.58777e-06	7.35921e-08
2	0	0	0	0	11.1155	0.1427	0.142476	0.000486794	1	9.63702e-06	6.93565e-08
2	0	0	0	0	11.2155	0.137699	0.137455	0.000473899	1	9.68486e-06	6.514e-08
2	0	0	0	0	11.3155	0.132699	0.132467	0.000458341	1	9.7313e-06	6.07152e-08
2	0	0	0	0	11.4155	0.127699	0.127475	0.000441202	1	9.77614e-06	5.62423e-08
2	0	0	0	0	11.5155	0.122699	0.122463	0.000423622	1	9.81916e-06	5.18781e-08
2	0	0	0	0	11.6155	0.117699	0.117472	0.00039996	1	9.86009e-06	4.69841e-08
2	0	0	0	0	11.7155	0.112698	0.112444	0.000372627	1	9.89856e-06	4.18995e-08
2	0	0	0	0	11.8155	0.107698	0.107457	0.000341489	1	9.93414e-06	3.66953e-08
2	0	0	0	0	11.9155	0.102698	0.102447	0.000304052	1	9.96623e-06	3.11491e-08
2	0	0	0	0	12.0155	0.0976978	0.097478	0.000256808	1	9.99409e-06	2.50331e-08
2	0	0	0	0	12.1155	0.0926976	0.0924795	0.000200179	1	1.00168e-05	1.85124e-08
2	0	0	0	0	12.2155	0.0876974	0.0874673	0.000131466	1	1.00333e-05	1.1499e-08
2	0	0	0	0	12.3155	0.0826972	0.0824794	4.62019e-05	1	1.00421e-05	3.81071e-09
2	0	0	0	0	12.4155	0.077697	0.0775063	-5.40145e-05	1	1.00417e-05	-4.18647e-09
2	0	0	0	0	12.5155	0.0726968	0.0725015	-0.000173561	1	1.00302e-05	-1.25834e-08
2	0	0	0	0	12.6155	0.0676966	0.0675051	-0.000313853	1	1.00058e-05	-2.11867e-08
2	0	0	0	0	12.7155	0.0626964	0.0624759	-0.000470865	1	9.96646e-06	-2.94177e-08
2	0	0	0	0	12.8155	0.0576962	0.0574838	-0.000643387	1	9.9106e-06	-3.69843e-08
2	0	0	0	0	12.9155	0.052696	0.0524959	-0.000822605	1	9.8371e-06	-4.31834e-08
2	0	0	0	0	13.0155	0.0476958	0.0474804	-0.00100369	1	9.74545e-06	-4.76559e-08
2	0	0	0	0	13.1155	0.0426956	0.0424682	-0.00116953	1	9.63646e-06	-4.96677e-08
2	0	0	0	0	13.2155	0.0376954	0.0374919	-0.0013124	1	9.51196e-06	-4.92042e-08
2	0	0	0	0	13.3155	0.0326952	0.0324585	-0.00142294	1	9.37475e-06	-4.61866e-08
2	0	0	0	0	13.4155	0.027695	0.0275119	-0.00149354	1	9.22842e-06	-4.10901e-08
2	0	0	0	0	13.5155	0.0226948	0.0224742	-0.00152744	1	9.07687e-06	-3.43279e-08
2	0	0	0	0	13.6155	0.0176946	0.0175044	-0.00152502	1	8.92383e-06	-2.66946e-08
2	0	0	0	0	13.7155	0.0126944	0.0124804	-0.00149464	1	8.77252e-06	-1.86537e-08
2	0	0	0	0	13.8155	0.00769417	0.00744591	-0.00144227	1	8.62534e-06	-1.0739e-08
2	0	0	0	0	13.9155	0.00269396	0.00247286	-0.00137838	1	8.48401e-06	-3.40853e-09
2	0	0	0	0	14.0155	-0.00230624	-0.00258605	-0.00130904	1	8.34938e-06	3.38525e-09
2	0	0	0	0	14.1155	-0.00730644	-0.00756016	-0.00123828	1	8.22185e-06	9.36156e-09
2	0	0	0	0	14.2155	-0.0123066	-0.0125777	-0.00116738	1	8.10146e-06	1.4683e-08
2	0	0	0	0	14.3155	-0.0173068	-0.0175381	-0.0011019	1	7.98788e-06	1.93251e-08
2	0	0	0	0	14.4155	-0.0223071	-0.0225175	-0.00104154	1	7.88062e-06	2.34528e-08
2	0	0	0	0	14.5155	-0.0273073	-0.0275318	-0.00098537	1	7.77919e-06	2.71291e-08
2	0	0	0	0	14.6155	-0.0323075	-0.0325579	-0.000934704	1	7.68306e-06	3.0432e-08
2	0	0	0	0	14.7155	-0.0373077	-0.0375129	-0.000888539	1	7.59177e-06	3.33317e-08
2	0	0	0	0	14.8155	-0.0423079	-0.0425655	-0.000847294	1	7.50481e-06	3.60655e-08
2	0	0	0	0	14.9155	-0.0473081	-0.0475534	-0.00081061	1	7.42179e-06	3.85472e-08
2	0	0	0	0	15.0155	-0.0523083	-0.0525296	-0.000778345	1	7.34231e-06	4.08861e-08
2	0	0	0	0	15.1155	-0.0573085	-0.0574761	-0.000744227	1	7.26605e-06	4.27753e-08
2	0	0	0	0	15.2155	-0.0623087	-0.0625722	-0.000717959	1	7.19274e-06	4.49242e-08
2	0	0	0	0	15.3155	-0.0673089	-0.0675675	-0.000692247	1	7.12209e-06	4.67734e-08
2	0	0	0	0	15.4155	-0.0723091	-0.0725638	-0.000668517	1	7.05392e-06	4.85102e-08
2	0	0	0	0	15.5155	-0.0773093	-0.0775252	-0.000647186	1	6.988e-06	5.01733e-08
2	0	0	0	0	15.6155	-0.0823095	-0.0825311	-0.000626957	1	6.92416e-06	5.17435e-08
2	0	0	0	0	15.7155	-0.0873097	-0.0875444	-0.000607582	1	6.86225e-06	5.31904e-08
2	0	0	0	0	15.8155	-0.0923099	-0.0925567	-0.000591557	1	6.80211e-06	5.47526e-08
2	0	0	0	0	15.9155	-0.0973101	-0.0975351	-0.000574619	1	6.74363e-06	5.60455e-08
2	0	0	1	0	16.0157	-0.10231	-0.102573	-0.000561023	1	6.6866e-06	5.75457e-08
2	0	0	1	0	16.1157	-0.107311	-0.107525	-0.000547632	1	6.6311e-06	5.88839e-08
2	0	0	1	0	16.2157	-0.112311	-0.112537	-0.000533981	1	6.57695e-06	6.00926e-08
2	0	0	1	0	16.3157	-0.117311	-0.117524	-0.00052168	1	6.52405e-06	6.13098e-08
2	0	0	1	0	16.4157	-0.122311	-0.122541	-0.000510303	1	6.47233e-06	6.25332e-08
2	0	0	1	0	16.5157	-0.127311	-0.127513	-0.000500452	1	6.42174e-06	6.38142e-08
2	0	0	1	0	16.6157	-0.132312	-0.13253	-0.000488059	1	6.37217e-06	6.46823e-08
2	0	0	1	0	16.7157	-0.137312	-0.137546	-0.000478898	1	6.32359e-06	6.58707e-08
2	0	0	1	0	16.8157	-0.142312	-0.142629	-0.000470271	1	6.27596e-06	6.70741e-08
2	0	0	1	0	16.9157	-0.147312	-0.147538	-0.00046287	1	6.22922e-06	6.82909e-08
2	0	0	1	0	17.0157	-0.152312	-0.152532	-0.00045334	1	6.18332e-06	6.9149e-08
2	0	0	1	0	17.1157	-0.157313	-0.157488	-0.000445775	1	6.13816e-06	7.02043e-08
2	0	0	1	0	17.2157	-0.162313	-0.162541	-0.000438589	1	6.09377e-06	7.12886e-08
2	0	0	1	0	17.3157	-0.167313	-0.167596	-0.000432963	1	6.05008e-06	7.25627e-08
2	0	0	1	0	17.4157	-0.172313	-0.172536	-0.000427026	1	6.00704e-06	7.36773e-08
2	0	0	1	0	17.5157	-0.177313	-0.177536	-0.000419413	1	5.96461e-06	7.4461e-08
2	0	0	1	0	17.6157	-0.182314	-0.182548	-0.000415064	1	5.92272e-06	7.57689e-08
2	0	0	1	0	17.7157	-0.187314	-0.187553	-0.000409601	1	5.88139e-06	7.6822e-08
2	0	0	1	0	17.8157	-0.192314	-0.192559	-0.000403966	1	5.84054e-06	7.77874e-08
2	0	0	1	0	17.9157	-0.197314	-0.197514	-0.000401345	1	5.80012e-06	7.92713e-08
2	1	0	0	1	18.0051	-0.198214	-0.198391	-0.000296113	1	5.76779e-06	5.87462e-08
2	1	0	0	1	18.1051	-0.193214	-0.193383	-0.000270073	1	5.73995e-06	5.22276e-08
2	1	0	0	1	18.2051	-0.188214	-0.188393	-0.000252586	1	5.71414e-06	4.75854e-08
2	1	0	0	1	18.3051	-0.183214	-0.183396	-0.000239652	1	5.6898e-06	4.39512e-08
2	1	0	0	1	18.4051	-0.178213	-0.178392	-0.00022958	1	5.6667e-06	4.09552e-08
2	1	0	0	1	18.5051	-0.173213	-0.173403	-0.000219146	1	5.64468e-06	3.80006e-08
2	1	0	0	1	18.6051	-0.168213	-0.168454	-0.00020799	1	5.62359e-06	3.50367e-08
2	1	0	0	1	18.7051	-0.163213	-0.163439	-0.000199942	1	5.60339e-06	3.26783e-08
2	1	0	0	1	18.8051	-0.158213	-0.158417	-0.000194447	1	5.584e-06	3.08036e-08
2	1	0	0	1	18.9051	-0.153212	-0.153413	-0.000185314	1	5.56538e-06	2.84297e-08
2	1	0	0	1	19.0051	-0.148212	-0.148375	-0.000178561	1	5.54744e-06	2.64941e-08
2	1	0	0	1	19.1051	-0.143212	-0.143401	-0.000171798	1	5.53016e-06	2.4636e-08
2	1	0	0	1	19.2051	-0.138212	-0.138391	-0.000165868	1	5.51353e-06	2.29547e-08
2	1	0	0	1	19.3051	-0.133212	-0.133365	-0.000160348	1	5.49749e-06	2.13848e-08
2	1	0	0	1	19.4051	-0.128211	-0.128442	-0.00015383	1	5.48202e-06	1.97582e-08
2	1	0	0	1	19.5051	-0.123211	-0.123405	-0.000148635	1	5.46711e-06	1.83424e-08
2	1	0	0	1	19.6051	-0.118211	-0.118383	-0.000143571	1	5.45271e-06	1.69964e-08
2	1	0	0	1	19.7051	-0.113211	-0.113406	-0.000139573	1	5.43883e-06	1.58285e-08
2	1	0	0	1	19.8051	-0.108211	-0.108412	-0.000133518	1	5.42541e-06	1.4475e-08
2	1	0	0	1	19.9051	-0.10321	-0.103408	-0.000129816	1	5.41245e-06	1.3424e-08
2	1	0	1	1	20.0053	-0.0982101	-0.0983344	-0.000125985	2	5.3999e-06	1.23886e-08
2	1	0	1	1	20.1053	-0.09321	-0.0933857	-0.000122545	2	5.38781e-06	1.1444e-08
2	1	0	1	1	20.2053	-0.0882097	-0.0884127	-0.00011763	2	5.37615e-06	1.03999e-08
2	1	0	1	1	20.3053	-0.0832095	-0.0834227	-0.000113125	2	5.36487e-06	9.43721e-09
2	1	0	1	1	20.4053	-0.0782093	-0.078367	-0.000108121	2	5.354e-06	8.47311e-09
2	1	0	1	1	20.5053	-0.0732091	-0.0734353	-0.000105507	2	5.34354e-06	7.74792e-09
2	1	0	1	1	20.6053	-0.0682089	-0.0683954	-0.000102638	2	5.33347e-06	7.01998e-09
2	1	0	1	1	20.7053	-0.0632087	-0.0634425	-9.68444e-05	2	5.3238e-06	6.14405e-09
2	1	0	1	1	20.8053	-0.0582085	-0.0584218	-9.29706e-05	2	5.31454e-06	5.43151e-09
2	1	0	1	1	20.9053	-0.0532083	-0.0533788	-8.92277e-05	2	5.30569e-06	4.76286e-09
2	1	0	1	1	21.0053	-0.0482081	-0.0483813	-8.46809e-05	2	5.29731e-06	4.09698e-09
2	1	0	1	1	21.1053	-0.0432079	-0.0433648	-7.96591e-05	2	5.28938e-06	3.4544e-09
2	1	0	1	1	21.2053	-0.0382077	-0.0383706	-7.37788e-05	2	5.28197e-06	2.83093e-09
2	1	0	1	1	21.3053	-0.0332075	-0.0333975	-6.79797e-05	2	5.27512e-06	2.27035e-09
2	1	0	1	1	21.4053	-0.0282073	-0.028398	-6.08805e-05	2	5.26891e-06	1.72888e-09
2	1	0	1	1	21.5053	-0.0232071	-0.0234207	-5.33186e-05	2	5.26348e-06	1.24876e-09
2	1	0	1	1	21.6053	-0.0182069	-0.0184201	-4.32943e-05	2	5.25895e-06	7.97484e-10
2	1	0	1	1	21.7053	-0.0132067	-0.0134301	-3.09472e-05	2	5.25553e-06	4.15623e-10
2	1	0	1	1	21.8053	-0.00820648	-0.00841038	-1.52475e-05	2	5.25347e-06	1.28237e-10
2	1	0	1	1	21.9053	-0.00320627	-0.00342991	4.77288e-06	2	5.25316e-06	-1.63705e-11
2	1	0	1	1	22.0053	0.00179393	0.00165233	2.9135e-05	2	5.25515e-06	4.81406e-11
2	1	0	1	1	22.1053	0.00679413	0.00661583	6.16685e-05	2	5.25994e-06	4.07988e-10
2	1	0	1	1	22.2053	0.0117943	0.011627	0.000104636	2	5.26837e-06	1.21661e-09
2	1	0	1	1	22.3053	0.0167945	0.0166457	0.000158504	2	5.28154e-06	2.63841e-09
2	1	0	1	1	22.4053	0.0217947	0.0216229	0.000223235	2	5.3007e-06	4.82701e-09
2	1	0	1	1	22.5053	0.0267949	0.0265812	0.00030598	2	5.32732e-06	8.13331e-09
2	1	0	1	1	22.6053	0.0317951	0.0316093	0.000408009	2	5.36311e-06	1.28969e-08
2	1	0	1	1	22.7053	0.0367953	0.0365824	0.000528536	2	5.41e-06	1.93351e-08
2	1	0	1	1	22.8053	0.0417955	0.0416105	0.000667855	2	5.46994e-06	2.77898e-08
2	1	0	1	1	22.9053	0.0467957	0.0466005	0.000824086	2	5.54472e-06	3.84028e-08
2	1	0	1	1	23.0053	0.0517959	0.0516414	0.000996989	2	5.63589e-06	5.14859e-08
2	1	0	1	1	23.1053	0.0567961	0.0566081	0.00116978	2	5.74436e-06	6.62189e-08
2	1	0	1	1	23.2053	0.0617963	0.0616458	0.00134029	2	5.87017e-06	8.26232e-08
2	1	0	1	1	23.3053	0.0667965	0.0666475	0.0014995	2	6.01263e-06	9.99382e-08
2	1	0	1	1	23.4053	0.0717967	0.0715855	0.00163949	2	6.17001e-06	1.17364e-07
2	1	0	1	1	23.5053	0.0767969	0.0766286	0.00174893	2	6.33989e-06	1.34018e-07
2	1	0	1	1	23.6053	0.0817971	0.0816334	0.00182809	2	6.51928e-06	1.49233e-07
2	1	0	1	1	23.7053	0.0867973	0.0866308	0.0018752	2	6.70496e-06	1.6245e-07
2	1	0	1	1	23.8053	0.0917976	0.0916473	0.00189248	2	6.89385e-06	1.73441e-07
2	1	0	1	1	23.9053	0.0967978	0.0966543	0.00188419	2	7.08312e-06	1.82115e-07
2	1	0	1	1	24.0053	0.101798	0.101605	0.00185649	2	7.27054e-06	1.88629e-07
2	1	0	1	1	24.1053	0.106798	0.106651	0.00181521	2	7.45447e-06	1.93595e-07
2	1	0	1	1	24.2053	0.111798	0.111609	0.00176492	2	7.63375e-06	1.96982e-07
2	1	0	1	1	24.3053	0.116799	0.11662	0.00171041	2	7.80773e-06	1.99467e-07
2	1	0	1	1	24.4053	0.121799	0.121601	0.00165273	2	7.97608e-06	2.00973e-07
2	1	0	1	1	24.5053	0.126799	0.126662	0.00159746	2	8.13875e-06	2.02338e-07
2	1	0	1	1	24.6053	0.131799	0.131638	0.00154135	2	8.29593e-06	2.02901e-07
2	1	0	1	1	24.7053	0.136799	0.13665	0.00149088	2	8.44783e-06	2.03728e-07
2	1	0	1	1	24.8053	0.1418	0.141637	0.0014442	2	8.59479e-06	2.04553e-07
2	1	0	1	1	24.9053	0.1468	0.146642	0.00139946	2	8.73715e-06	2.0522e-07
2	1	0	0	1	25.0055	0.1518	0.151604	0.00135925	2	8.87552e-06	2.06067e-07
2	1	0	0	1	25.1055	0.1568	0.156602	0.00132302	2	9.00976e-06	2.07187e-07
2	1	0	0	1	25.2055	0.1618	0.161599	0.00128678	2	9.14037e-06	2.07942e-07
2	1	0	0	1	25.3055	0.166801	0.166616	0.00125493	2	9.26765e-06	2.09092e-07
2	1	0	0	1	25.4055	0.171801	0.171609	0.00122657	2	9.39183e-06	2.1049e-07
2	1	0	0	1	25.5055	0.176801	0.1766	0.001197	2	9.51316e-06	2.11391e-07
2	1	0	0	1	25.6055	0.181801	0.181674	0.00117172	2	9.63183e-06	2.12872e-07
2	1	0	0	1	25.7055	0.186801	0.186592	0.00114853	2	9.74803e-06	2.14306e-07
2	1	0	0	1	25.8055	0.191802	0.191587	0.00112609	2	9.86194e-06	2.15745e-07
2	1	0	0	1	25.9055	0.196802	0.196574	0.00110638	2	9.97375e-06	2.17486e-07
2	1	0	0	1	26.0055	0.201802	0.201659	0.00108876	2	1.00836e-05	2.19557e-07
2	1	0	0	1	26.1055	0.206802	0.206608	0.0010704	2	1.01917e-05	2.21154e-07
2	1	0	0	1	26.2055	0.211802	0.211598	0.00105469	2	1.02981e-05	2.2317e-07
2	1	0	0	1	26.3055	0.216803	0.216642	0.00104032	2	1.0403e-05	2.25378e-07
2	1	0	0	1	26.4055	0.221803	0.221609	0.00102454	2	1.05064e-05	2.27048e-07
2	1	0	0	1	26.5055	0.226803	0.226603	0.0010121	2	1.06085e-05	2.29345e-07
2	1	0	0	1	26.6055	0.231803	0.231679	0.000999483	2	1.07092e-05	2.31559e-07
2	1	0	0	1	26.7055	0.236803	0.236654	0.000987728	2	1.08087e-05	2.3375e-07
2	1	0	0	1	26.8055	0.241804	0.241629	0.000975404	2	1.0907e-05	2.35686e-07
2	1	0	0	1	26.9055	0.246804	0.246633	0.000965305	2	1.10043e-05	2.38076e-07
2	1	0	0	1	27.0055	0.251804	0.25163	0.000954121	2	1.11005e-05	2.40085e-07
2	1	0	0	1	27.1055	0.256804	0.256638	0.000947518	2	1.11959e-05	2.43169e-07
2	1	0	0	1	27.2055	0.261804	0.261588	0.000937877	2	1.12903e-05	2.45338e-07
2	1	0	0	1	27.3055	0.266805	0.266624	0.000931067	2	1.1384e-05	2.48245e-07
2	1	0	0	1	27.4055	0.271805	0.27166	0.000923917	2	1.14769e-05	2.50991e-07
2	1	0	0	1	27.5055	0.276805	0.276667	0.000919183	2	1.15693e-05	2.54307e-07
2	1	0	0	1	27.6055	0.281805	0.281654	0.000913363	2	1.16611e-05	2.57253e-07
2	1	0	0	1	27.7055	0.286805	0.286622	0.00090868	2	1.17523e-05	2.60448e-07
2	1	0	0	1	27.8055	0.291806	0.291664	0.000905695	2	1.18432e-05	2.64159e-07
2	1	0	0	1	27.9055	0.296806	0.296645	0.000900726	2	1.19337e-05	2.67196e-07
2	0	0	0	1	27.9951	0.298706	0.298499	0.000796685	2	1.2012e-05	2.3781e-07
2	0	0	0	1	28.0951	0.293706	0.293524	0.000755708	2	1.20893e-05	2.21818e-07
2	0	0	0	1	28.1951	0.288705	0.288511	0.00072993	2	1.21633e-05	2.10593e-07
2	0	0	0	1	28.2951	0.283705	0.283508	0.000709408	2	1.2235e-05	2.01122e-07
2	0	0	0	1	28.3951	0.278705	0.278491	0.000692385	2	1.23048e-05	1.92823e-07
2	0	0	0	1	28.4951	0.273705	0.273516	0.00067629	2	1.2373e-05	1.84976e-07
2	0	0	0	1	28.5951	0.268705	0.268507	0.000663156	2	1.24397e-05	1.78062e-07
2	0	0	0	1	28.6951	0.263704	0.263493	0.000648995	2	1.25051e-05	1.71006e-07
2	0	0	0	1	28.7951	0.258704	0.258543	0.000638639	2	1.25693e-05	1.65115e-07
2	0	0	0	1	28.8951	0.253704	0.253505	0.000626772	2	1.26324e-05	1.5889e-07
2	0	0	0	1	28.9951	0.248704	0.248464	0.00061752	2	1.26944e-05	1.53431e-07
2	0	0	0	1	29.0951	0.243704	0.243461	0.00060778	2	1.27555e-05	1.47971e-07
2	0	0	0	1	29.1951	0.238703	0.23849	0.000598473	2	1.28156e-05	1.4273e-07
2	0	0	0	1	29.2951	0.233703	0.233525	0.000589952	2	1.28748e-05	1.37768e-07
2	0	0	0	1	29.3951	0.228703	0.228538	0.000580696	2	1.29331e-05	1.32711e-07
2	0	0	0	1	29.4951	0.223703	0.2235	0.000572039	2	1.29906e-05	1.27851e-07
2	0	0	0	1	29.5951	0.218703	0.218551	0.000565003	2	1.30473e-05	1.23482e-07
2	0	0	0	1	29.6951	0.213702	0.213522	0.000557782	2	1.31032e-05	1.19099e-07
2	0	0	0	1	29.7951	0.208702	0.208495	0.000549091	2	1.31583e-05	1.14483e-07
2	0	0	0	1	29.8951	0.203702	0.203452	0.000539618	2	1.32127e-05	1.09787e-07
2	0	0	0	1	29.9951	0.198702	0.198414	0.000534171	2	1.32662e-05	1.05987e-07
2	0	0	0	1	30.0951	0.193702	0.193508	0.000526033	2	1.33189e-05	1.01792e-07
2	0	0	0	1	30.1951	0.188701	0.188531	0.000517897	2	1.33709e-05	9.76396e-08
2	0	0	0	1	30.2951	0.183701	0.183566	0.000509699	2	1.34221e-05	9.35636e-08
2	0	0	0	1	30.3951	0.178701	0.178526	0.000502043	2	1.34725e-05	8.96276e-08
2	0	0	0	1	30.4951	0.173701	0.173487	0.000494019	2	1.3522e-05	8.57057e-08
2	0	0	0	1	30.5951	0.168701	0.168464	0.000485384	2	1.35707e-05	8.17698e-08
2	0	0	0	1	30.6951	0.1637	0.163464	0.000475717	2	1.36186e-05	7.77628e-08
2	0	0	0	1	30.7951	0.1587	0.158504	0.000466821	2	1.36655e-05	7.39931e-08
2	0	0	0	1	30.8951	0.1537	0.153499	0.000457486	2	1.37115e-05	7.02238e-08
2	0	0	0	1	30.9951	0.1487	0.148462	0.00044645	2	1.37565e-05	6.62806e-08
2	0	0	1	1	31.0953	0.1437	0.143485	0.000434855	2	1.38005e-05	6.23953e-08
2	0	0	1	1	31.1953	0.138699	0.138472	0.000422285	2	1.38432e-05	5.84747e-08
2	0	0	1	1	31.2953	0.133699	0.133479	0.000408781	2	1.38847e-05	5.45636e-08
2	0	0	1	1	31.3953	0.128699	0.128476	0.000393302	2	1.39246e-05	5.05299e-08
2	0	0	1	1	31.4953	0.123699	0.12353	0.000375571	2	1.39629e-05	4.63941e-08
2	0	0	1	1	31.5953	0.118699	0.118461	0.00035444	2	1.39993e-05	4.19873e-08
2	0	0	1	1	31.6953	0.113698	0.113474	0.000331001	2	1.40335e-05	3.75601e-08
2	0	0	1	1	31.7953	0.108698	0.108475	0.00030134	2	1.40649e-05	3.26878e-08
2	0	0	1	1	31.8953	0.103698	0.103468	0.000265579	2	1.40932e-05	2.74789e-08
2	0	0	1	1	31.9953	0.0986978	0.0984798	0.000223484	2	1.41175e-05	2.20087e-08
2	0	0	1	1	32.0953	0.0936976	0.0934761	0.00017086	2	1.41371e-05	1.59713e-08
2	0	0	1	1	32.1953	0.0886974	0.0885104	0.000106159	2	1.41509e-05	9.39615e-09
2	0	0	1	1	32.2953	0.0836972	0.0834536	2.91756e-05	2	1.41577e-05	2.43481e-09
2	0	0	1	1	32.3953	0.078697	0.0784679	-6.53195e-05	2	1.41558e-05	-5.12548e-09
2	0	0	1	1	32.4953	0.0736968	0.0734895	-0.000176864	2	1.41436e-05	-1.29976e-08
2	0	0	1	1	32.5953	0.0686966	0.0685154	-0.00030913	2	1.41193e-05	-2.11802e-08
2	0	0	1	1	32.6953	0.0636964	0.0634883	-0.000459144	2	1.40808e-05	-2.91503e-08
2	0	0	1	1	32.7953	0.0586962	0.0584782	-0.000625742	2	1.40264e-05	-3.65923e-08
2	0	0	1	1	32.8953	0.053696	0.0535083	-0.000803625	2	1.39548e-05	-4.30006e-08
2	0	0	1	1	32.9953	0.0486958	0.0484377	-0.000985697	2	1.38652e-05	-4.77449e-08
2	0	0	1	1	33.0953	0.0436956	0.0434573	-0.00115642	2	1.37579e-05	-5.02547e-08
2	0	0	1	1	33.1953	0.0386954	0.0384863	-0.00130919	2	1.36343e-05	-5.03858e-08
2	0	0	1	1	33.2953	0.0336952	0.0335048	-0.0014331	2	1.34967e-05	-4.80158e-08
2	0	0	1	1	33.3953	0.028695	0.0284289	-0.00152229	2	1.33484e-05	-4.3277e-08
2	0	0	1	1	33.4953	0.0236948	0.0235121	-0.00157266	2	1.31932e-05	-3.69766e-08
2	0	0	1	1	33.5953	0.0186946	0.018468	-0.0015849	2	1.30349e-05	-2.927e-08
2	0	0	1	1	33.6953	0.0136944	0.0134982	-0.00156397	2	1.2877e-05	-2.11107e-08
2	0	0	1	1	33.7953	0.00869421	0.00848695	-0.00152192	2	1.27223e-05	-1.29164e-08
2	0	0	1	1	33.8953	0.003694	0.00355949	-0.00146432	2	1.25728e-05	-5.21223e-09
2	0	0	1	1	33.9953	-0.0013062	-0.00158635	-0.00139764	2	1.24296e-05	2.21714e-09
2	0	0	1	1	34.0953	-0.0063064	-0.00661346	-0.00132374	2	1.22934e-05	8.7545e-09
2	0	0	1	1	34.1953	-0.0113066	-0.0115208	-0.0012535	2	1.21644e-05	1.44413e-08
2	0	0	1	1	34.2953	-0.0163068	-0.016532	-0.00118471	2	1.20424e-05	1.95856e-08
2	0	0	1	1	34.3953	-0.021307	-0.0215697	-0.00112121	2	1.19269e-05	2.41843e-08
2	0	0	1	1	34.4953	-0.0263072	-0.0265459	-0.00106453	2	1.18175e-05	2.82588e-08
2	0	0	1	1	34.5953	-0.0313074	-0.0315476	-0.00100981	2	1.17136e-05	3.18571e-08
2	0	0	1	1	34.6953	-0.0363076	-0.0365609	-0.000961642	2	1.16148e-05	3.51585e-08
2	0	0	1	1	34.7953	-0.0413078	-0.0415955	-0.000919234	2	1.15206e-05	3.8236e-08
2	0	0	1	1	34.8953	-0.046308	-0.0465664	-0.00088096	2	1.14306e-05	4.10231e-08
2	0	0	1	1	34.9953	-0.0513082	-0.05155	-0.000843954	2	1.13442e-05	4.35059e-08
2	0	0	1	1	35.0953	-0.0563084	-0.0565666	-0.000810827	2	1.12613e-05	4.58657e-08
2	0	0	1	1	35.1953	-0.0613086	-0.0615778	-0.000782151	2	1.11814e-05	4.81631e-08
2	0	0	1	1	35.2953	-0.0663089	-0.0665572	-0.000755505	2	1.11044e-05	5.02843e-08
2	0	0	1	1	35.3953	-0.071309	-0.0715429	-0.000730511	2	1.103e-05	5.22629e-08
2	0	0	1	1	35.4953	-0.0763093	-0.0765245	-0.000707094	2	1.0958e-05	5.41099e-08
2	0	0	1	1	35.5953	-0.0813095	-0.081507	-0.000686536	2	1.08882e-05	5.59575e-08
2	0	0	1	1	35.6953	-0.0863097	-0.0865681	-0.000666311	2	1.08204e-05	5.76813e-08
2	0	0	1	1	35.7953	-0.0913099	-0.0915857	-0.000648601	2	1.07545e-05	5.94026e-08
2	0	0	1	1	35.8953	-0.0963101	-0.096581	-0.000631091	2	1.06904e-05	6.09514e-08
2	0	0	0	1	35.9955	-0.10131	-0.101499	-0.000614916	2	1.06278e-05	6.24133e-08
2	0	0	0	1	36.0955	-0.10631	-0.10651	-0.000600997	2	1.05668e-05	6.40122e-08
2	0	0	0	1	36.1955	-0.111311	-0.11154	-0.000587871	2	1.05072e-05	6.55713e-08
2	0	0	0	1	36.2955	-0.116311	-0.116572	-0.000575849	2	1.0449e-05	6.71277e-08
2	0	0	0	1	36.3955	-0.121311	-0.121506	-0.000562475	2	1.0392e-05	6.83439e-08
2	0	0	0	1	36.4955	-0.126311	-0.126529	-0.000550276	2	1.03363e-05	6.96262e-08
2	0	0	0	1	36.5955	-0.131311	-0.131549	-0.000540454	2	1.02816e-05	7.10962e-08
2	0	0	0	1	36.6955	-0.136312	-0.136522	-0.000529465	2	1.0228e-05	7.22837e-08
2	0	0	0	1	36.7955	-0.141312	-0.141527	-0.000518404	2	1.01755e-05	7.33681e-08
2	0	0	0	1	36.8955	-0.146312	-0.146556	-0.000509533	2	1.01239e-05	7.46752e-08
2	0	0	0	1	36.9955	-0.151312	-0.151561	-0.00050051	2	1.00732e-05	7.58579e-08
2	0	0	0	1	37.0955	-0.156313	-0.15658	-0.000493671	2	1.00234e-05	7.72988e-08
2	0	0	0	1	37.1955	-0.161313	-0.161571	-0.000483742	2	9.97438e-06	7.81585e-08
2	0	0	0	1	37.2955	-0.166313	-0.166539	-0.000477429	2	9.92617e-06	7.95103e-08
2	0	0	0	1	37.3955	-0.171313	-0.171542	-0.000470942	2	9.87865e-06	8.07866e-08
2	0	0	0	1	37.4955	-0.176313	-0.176542	-0.000463416	2	9.83182e-06	8.18123e-08
2	0	0	0	1	37.5955	-0.181314	-0.181519	-0.000458286	2	9.78561e-06	8.31877e-08
2	0	0	0	1	37.6955	-0.186314	-0.186601	-0.000451579	2	9.73999e-06	8.42653e-08
2	0	0	0	1	37.7955	-0.191314	-0.191529	-0.000448664	2	9.69492e-06	8.59322e-08
2	0	0	0	1	37.8955	-0.196314	-0.196522	-0.000441973	2	9.65034e-06	8.68575e-08
2	1	0	1	0	37.9849	-0.199214	-0.199422	-0.000343237	2	9.61233e-06	6.84489e-08
2	1	0	1	0	38.0849	-0.194214	-0.194448	-0.000312875	2	9.5801e-06	6.0838e-08
2	1	0	1	0	38.1849	-0.189214	-0.18946	-0.000294435	2	9.55012e-06	5.57836e-08
2	1	0	1	0	38.2849	-0.184214	-0.184436	-0.000281085	2	9.5217e-06	5.1842e-08
2	1	0	1	0	38.3849	-0.179213	-0.179431	-0.000267695	2	9.49458e-06	4.80328e-08
2	1	0	1	0	38.4849	-0.174213	-0.17443	-0.000258229	2	9.46857e-06	4.5043e-08
2	1	0	1	0	38.5849	-0.169213	-0.169439	-0.00024803	2	9.44355e-06	4.2026e-08
2	1	0	1	0	38.6849	-0.164213	-0.16442	-0.000238992	2	9.41947e-06	3.92951e-08
2	1	0	1	0	38.7849	-0.159213	-0.159387	-0.000228925	2	9.39622e-06	3.64876e-08
2	1	0	1	0	38.8849	-0.154212	-0.154394	-0.000223564	2	9.37378e-06	3.45169e-08
2	1	0	1	0	38.9849	-0.149212	-0.149359	-0.000215619	2	9.35206e-06	3.22046e-08
2	1	0	1	0	39.0849	-0.144212	-0.144425	-0.000208716	2	9.33105e-06	3.01438e-08
2	1	0	1	0	39.1849	-0.139212	-0.13937	-0.000201867	2	9.31073e-06	2.81342e-08
2	1	0	1	0	39.2849	-0.134212	-0.13439	-0.000197121	2	9.29102e-06	2.64911e-08
2	1	0	1	0	39.3849	-0.129211	-0.129398	-0.000190375	2	9.27194e-06	2.46342e-08
2	1	0	1	0	39.4849	-0.124211	-0.124436	-0.000184662	2	9.25345e-06	2.29786e-08
2	1	0	1	0	39.5849	-0.119211	-0.119426	-0.000180557	2	9.23553e-06	2.15632e-08
2	1	0	1	0	39.6849	-0.114211	-0.114382	-0.000173637	2	9.21817e-06	1.98608e-08
2	1	0	1	0	39.7849	-0.109211	-0.109341	-0.000169143	2	9.2013e-06	1.84942e-08
2	1	0	1	0	39.8849	-0.10421	-0.104418	-0.000163305	2	9.18493e-06	1.70521e-08
2	1	0	1	0	39.9849	-0.0992102	-0.0993977	-0.000160239	3	9.16903e-06	1.59273e-08
2	1	0	0	0	40.0851	-0.09421	-0.0944141	-0.000154812	3	9.15355e-06	1.46164e-08
2	1	0	0	0	40.1851	-0.0892098	-0.0894156	-0.000149704	3	9.13856e-06	1.33858e-08
2	1	0	0	0	40.2851	-0.0842096	-0.0844606	-0.000145902	3	9.12399e-06	1.2323e-08
2	1	0	0	0	40.3851	-0.0792094	-0.0793783	-0.000142009	3	9.10986e-06	1.12725e-08
2	1	0	0	0	40.4851	-0.0742092	-0.0744657	-0.000137394	3	9.09615e-06	1.02311e-08
2	1	0	0	0	40.5851	-0.069209	-0.0694407	-0.000134502	3	9.08286e-06	9.33992e-09
2	1	0	0	0	40.6851	-0.0642088	-0.0643659	-0.000129562	3	9.07001e-06	8.33934e-09
2	1	0	0	0	40.7851	-0.0592086	-0.0594119	-0.000124614	3	9.05758e-06	7.40355e-09
2	1	0	0	0	40.8851	-0.0542084	-0.0543996	-0.000119797	3	9.04562e-06	6.51691e-09
2	1	0	0	0	40.9851	-0.0492081	-0.0494298	-0.000115644	3	9.03414e-06	5.71626e-09
2	1	0	0	0	41.0851	-0.0442079	-0.044391	-0.00010955	3	9.02314e-06	4.86304e-09
2	1	0	0	0	41.1851	-0.0392077	-0.0394116	-0.000103354	3	9.01268e-06	4.07333e-09
2	1	0	0	0	41.2851	-0.0342075	-0.0344598	-9.72418e-05	3	9.00283e-06	3.35093e-09
2	1	0	0	0	41.3851	-0.0292073	-0.0293818	-8.95986e-05	3	8.99365e-06	2.63256e-09
2	1	0	0	0	41.4851	-0.0242071	-0.024379	-8.21303e-05	3	8.98528e-06	2.00226e-09
2	1	0	0	0	41.5851	-0.0192069	-0.0194092	-7.1629e-05	3	8.97781e-06	1.39026e-09
2	1	0	0	0	41.6851	-0.0142067	-0.0144223	-5.97218e-05	3	8.97148e-06	8.61328e-10
2	1	0	0	0	41.7851	-0.00920652	-0.00941007	-4.34497e-05	3	8.96653e-06	4.08865e-10
2	1	0	0	0	41.8851	-0.00420631	-0.00440204	-2.42066e-05	3	8.9633e-06	1.06559e-10
2	1	0	0	0	41.9851	0.000793888	0.000680194	4.4874e-07	3	8.96232e-06	3.0523e-13
2	1	0	0	0	42.0851	0.00579409	0.00562673	3.1668e-05	3	8.96407e-06	1.78187e-10
2	1	0	0	0	42.1851	0.0107943	0.0106051	6.92746e-05	3	8.96937e-06	7.34662e-10
2	1	0	0	0	42.2851	0.0157945	0.0155824	0.000122109	3	8.97917e-06	1.90275e-09
2	1	0	0	0	42.3851	0.0207947	0.0206233	0.00018579	3	8.99464e-06	3.83159e-09
2	1	0	0	0	42.4851	0.0257949	0.0256122	0.000263762	3	9.01719e-06	6.75552e-09
2	1	0	0	0	42.5851	0.0307951	0.0306149	0.000359319	3	9.04844e-06	1.10005e-08
2	1	0	0	0	42.6851	0.0357953	0.0356017	0.000473543	3	9.09017e-06	1.68589e-08
2	1	0	0	0	42.7851	0.0407955	0.0405759	0.00060646	3	9.14429e-06	2.46076e-08
2	1	0	0	0	42.8851	0.0457957	0.0455659	0.000756509	3	9.21252e-06	3.4471e-08
2	1	0	0	0	42.9851	0.0507959	0.0506195	0.000920815	3	9.29642e-06	4.66112e-08
2	1	0	0	0	43.0851	0.0557961	0.0555978	0.00108972	3	9.39713e-06	6.05861e-08
2	1	0	0	0	43.1851	0.0607963	0.0606122	0.00125867	3	9.51484e-06	7.62909e-08
2	1	0	0	0	43.2851	0.0657965	0.0656128	0.00142133	3	9.64919e-06	9.32576e-08
2	1	0	0	0	43.3851	0.0707967	0.0706367	0.00156224	3	9.79874e-06	1.10351e-07
2	1	0	0	0	43.4851	0.0757969	0.0756437	0.0016813	3	9.96142e-06	1.2718e-07
2	1	0	0	0	43.5851	0.0807971	0.0806422	0.00177034	3	1.01345e-05	1.42764e-07
2	1	0	0	0	43.6851	0.0857973	0.0855877	0.00182795	3	1.0315e-05	1.5645e-07
2	1	0	0	0	43.7851	0.0907975	0.0906169	0.00185656	3	1.04997e-05	1.68236e-07
2	1	0	0	0	43.8851	0.0957977	0.0956546	0.00185671	3	1.06858e-05	1.77603e-07
2	1	0	0	0	43.9851	0.100798	0.100608	0.00183715	3	1.08709e-05	1.84832e-07
2	1	0	0	0	44.0851	0.105798	0.105627	0.00180208	3	1.10532e-05	1.90349e-07
2	1	0	0	0	44.1851	0.110798	0.11062	0.00175481	3	1.12314e-05	1.94118e-07
2	1	0	0	0	44.2851	0.115798	0.115625	0.00170304	3	1.14046e-05	1.96914e-07
2	1	0	0	0	44.3851	0.120799	0.120613	0.00164626	3	1.15723e-05	1.9856e-07
2	1	0	0	0	44.4851	0.125799	0.125641	0.00159221	3	1.17344e-05	2.00048e-07
2	1	0	0	0	44.5851	0.130799	0.130603	0.0015362	3	1.18911e-05	2.00632e-07
2	1	0	0	0	44.6851	0.135799	0.135555	0.0014852	3	1.20424e-05	2.01325e-07
2	1	0	0	0	44.7851	0.1408	0.140599	0.00143698	3	1.21887e-05	2.02037e-07
2	1	0	0	0	44.8851	0.1458	0.145684	0.00138991	3	1.23303e-05	2.02488e-07
2	1	0	1	0	44.9853	0.1508	0.150648	0.00134789	3	1.24678e-05	2.03056e-07
2	1	0	1	0	45.0853	0.1558	0.155638	0.00131243	3	1.2601e-05	2.04263e-07
2	1	0	1	0	45.1853	0.1608	0.160617	0.00127682	3	1.27306e-05	2.05078e-07
2	1	0	1	0	45.2853	0.165801	0.165626	0.00124311	3	1.28567e-05	2.05891e-07
2	1	0	1	0	45.3853	0.170801	0.170657	0.00121246	3	1.29796e-05	2.06915e-07
2	1	0	1	0	45.4853	0.175801	0.175673	0.00118325	3	1.30996e-05	2.07864e-07
2	1	0	1	0	45.5853	0.180801	0.180626	0.00115726	3	1.32169e-05	2.09031e-07
2	1	0	1	0	45.6853	0.185801	0.185653	0.00113242	3	1.33316e-05	2.10237e-07
2	1	0	1	0	45.7853	0.190802	0.190657	0.00111049	3	1.34439e-05	2.11723e-07
2	1	0	1	0	45.8853	0.195802	0.195588	0.00108894	3	1.3554e-05	2.12984e-07
2	1	0	1	0	45.9853	0.200802	0.200589	0.00106876	3	1.36622e-05	2.14382e-07
2	1	0	1	0	46.0853	0.205802	0.205679	0.0010516	3	1.37685e-05	2.16292e-07
2	1	0	1	0	46.1853	0.210802	0.210637	0.001035	3	1.38731e-05	2.18009e-07
2	1	0	1	0	46.2853	0.215803	0.215609	0.00101908	3	1.3976e-05	2.19722e-07
2	1	0	1	0	46.3853	0.220803	0.220684	0.00100485	3	1.40774e-05	2.21753e-07
2	1	0	1	0	46.4853	0.225803	0.225646	0.000990832	3	1.41774e-05	2.23577e-07
2	1	0	1	0	46.5853	0.230803	0.230624	0.000977762	3	1.4276e-05	2.25496e-07
2	1	0	1	0	46.6853	0.235803	0.23561	0.000965341	3	1.43733e-05	2.27444e-07
2	1	0	1	0	46.7853	0.240804	0.240681	0.00095299	3	1.44693e-05	2.29366e-07
2	1	0	1	0	46.8853	0.245804	0.245645	0.000941021	3	1.45642e-05	2.31157e-07
2	1	0	1	0	46.9853	0.250804	0.250636	0.000929244	3	1.46579e-05	2.32902e-07
2	1	0	1	0	47.0853	0.255804	0.255678	0.000920123	3	1.47506e-05	2.35255e-07
2	1	0	1	0	47.1853	0.260804	0.260608	0.000909964	3	1.48423e-05	2.37144e-07
2	1	0	1	0	47.2853	0.265805	0.26563	0.000901793	3	1.49331e-05	2.39543e-07
2	1	0	1	0	47.3853	0.270805	0.270653	0.000893369	3	1.50231e-05	2.41793e-07
2	1	0	1	0	47.4853	0.275805	0.275666	0.000887625	3	1.51124e-05	2.44688e-07
2	1	0	1	0	47.5853	0.280805	0.280658	0.000881486	3	1.5201e-05	2.47396e-07
2	1	0	1	0	47.6853	0.285805	0.285691	0.000876279	3	1.52891e-05	2.50345e-07
2	1	0	1	0	47.7853	0.290806	0.29063	0.000870567	3	1.53766e-05	2.53012e-07
2	1	0	1	0	47.8853	0.295806	0.295654	0.000866818	3	1.54637e-05	2.56279e-07
2	0	0	1	0	47.9749	0.299706	0.299562	0.000779406	3	1.55409e-05	2.33481e-07
2	0	0	1	0	48.0749	0.294706	0.294495	0.000730571	3	1.56157e-05	2.15149e-07
2	0	0	1	0	48.1749	0.289706	0.289476	0.000704469	3	1.56872e-05	2.03927e-07
2	0	0	1	0	48.2749	0.284705	0.2845	0.00068374	3	1.57565e-05	1.94524e-07
2	0	0	1	0	48.3749	0.279705	0.279512	0.000667362	3	1.58239e-05	1.86536e-07
2	0	0	1	0	48.4749	0.274705	0.274509	0.000653323	3	1.58898e-05	1.79343e-07
2	0	0	1	0	48.5749	0.269705	0.269535	0.000639405	3	1.59543e-05	1.72342e-07
2	0	0	1	0	48.6749	0.264705	0.264499	0.000628122	3	1.60175e-05	1.66137e-07
2	0	0	1	0	48.7749	0.259704	0.259512	0.000617375	3	1.60796e-05	1.60216e-07
2	0	0	1	0	48.8749	0.254704	0.254498	0.000606881	3	1.61406e-05	1.5445e-07
2	0	0	1	0	48.9749	0.249704	0.249486	0.000595865	3	1.62005e-05	1.4866e-07
2	0	0	1	0	49.0749	0.244704	0.244449	0.000587519	3	1.62596e-05	1.43619e-07
2	0	0	1	0	49.1749	0.239703	0.239516	0.000577834	3	1.63177e-05	1.384e-07
2	0	0	1	0	49.2749	0.234703	0.234481	0.000569276	3	1.6375e-05	1.33484e-07
2	0	0	1	0	49.3749	0.229703	0.229505	0.000560778	3	1.64314e-05	1.28701e-07
2	0	0	1	0	49.4749	0.224703	0.224462	0.000553749	3	1.6487e-05	1.24296e-07
2	0	0	1	0	49.5749	0.219703	0.219489	0.000546685	3	1.65418e-05	1.19991e-07
2	0	0	1	0	49.6749	0.214702	0.214472	0.000537804	3	1.65958e-05	1.15344e-07
2	0	0	1	0	49.7749	0.209702	0.209492	0.000531012	3	1.6649e-05	1.11243e-07
2	0	0	1	0	49.8749	0.204702	0.204457	0.000522041	3	1.67014e-05	1.06735e-07
2	0	0	1	0	49.9749	0.199702	0.199519	0.000514405	3	1.67531e-05	1.02634e-07
2	0	0	1	0	50.0749	0.194702	0.19446	0.000506903	3	1.6804e-05	9.85724e-08
2	0	0	1	0	50.1749	0.189701	0.189487	0.000499148	3	1.68541e-05	9.45822e-08
2	0	0	1	0	50.2749	0.184701	0.184546	0.000491169	3	1.69034e-05	9.06434e-08
2	0	0	1	0	50.3749	0.179701	0.17947	0.000483879	3	1.6952e-05	8.68419e-08
2	0	0	1	0	50.4749	0.174701	0.174491	0.000473481	3	1.69997e-05	8.2618e-08
2	0	0	1	0	50.5749	0.169701	0.169503	0.000466477	3	1.70466e-05	7.90692e-08
2	0	0	1	0	50.6749	0.1647	0.164497	0.000457087	3	1.70927e-05	7.51894e-08
2	0	0	1	0	50.7749	0.1597	0.159519	0.000448502	3	1.71378e-05	7.15444e-08
2	0	0	1	0	50.8749	0.1547	0.154521	0.000439608	3	1.7182e-05	6.79288e-08
2	0	0	1	0	50.9749	0.1497	0.149489	0.000428648	3	1.72253e-05	6.4078e-08
2	0	0	0	0	51.0751	0.1447	0.144461	0.000417467	3	1.72676e-05	6.03075e-08
2	0	0	0	0	51.1751	0.139699	0.139482	0.000405277	3	1.73086e-05	5.65289e-08
2	0	0	0	0	51.2751	0.134699	0.134396	0.000393456	3	1.73484e-05	5.28788e-08
2	0	0	0	0	51.3751	0.129699	0.129462	0.000378429	3	1.73868e-05	4.89922e-08
2	0	0	0	0	51.4751	0.124699	0.124454	0.000361678	3	1.74236e-05	4.50123e-08
2	0	0	0	0	51.5751	0.119699	0.119418	0.00034033	3	1.74586e-05	4.06416e-08
2	0	0	0	0	51.6751	0.114698	0.114462	0.000318124	3	1.74914e-05	3.64132e-08
2	0	0	0	0	51.7751	0.109698	0.109496	0.000290706	3	1.75216e-05	3.18311e-08
2	0	0	0	0	51.8751	0.104698	0.104497	0.000257942	3	1.75489e-05	2.69541e-08
2	0	0	0	0	51.9751	0.0996979	0.0995145	0.000215672	3	1.75724e-05	2.14625e-08
2	0	0	0	0	52.0751	0.0946977	0.0944789	0.000167726	3	1.75916e-05	1.58466e-08
2	0	0	0	0	52.1751	0.0896975	0.089491	0.000106095	3	1.76052e-05	9.49456e-09
2	0	0	0	0	52.2751	0.0846973	0.0844851	3.2235e-05	3	1.76122e-05	2.72338e-09
2	0	0	0	0	52.3751	0.0796971	0.0794718	-5.55637e-05	3	1.76111e-05	-4.41575e-09
2	0	0	0	0	52.4751	0.0746969	0.0744712	-0.000162673	3	1.76002e-05	-1.21144e-08
2	0	0	0	0	52.5751	0.0696967	0.0694335	-0.000287557	3	1.75778e-05	-1.99661e-08
2	0	0	0	0	52.6751	0.0646964	0.0644636	-0.000430771	3	1.7542e-05	-2.77691e-08
2	0	0	0	0	52.7751	0.0596963	0.0594757	-0.00059234	3	1.74908e-05	-3.52298e-08
2	0	0	0	0	52.8751	0.0546961	0.0544879	-0.000764037	3	1.7423e-05	-4.16307e-08
2	0	0	0	0	52.9751	0.0496959	0.0494417	-0.000944335	3	1.73374e-05	-4.66895e-08
2	0	0	0	0	53.0751	0.0446957	0.0444527	-0.00111894	3	1.7234e-05	-4.974e-08
2	0	0	0	0	53.1751	0.0396955	0.0394617	-0.00127998	3	1.71138e-05	-5.05101e-08
2	0	0	0	0	53.2751	0.0346953	0.0344462	-0.00141208	3	1.69789e-05	-4.86408e-08
2	0	0	0	0	53.3751	0.0296951	0.0294689	-0.00151274	3	1.68321e-05	-4.45789e-08
2	0	0	0	0	53.4751	0.0246949	0.0244832	-0.00157691	3	1.66773e-05	-3.86078e-08
2	0	0	0	0	53.5751	0.0196946	0.0194709	-0.00160095	3	1.6518e-05	-3.11719e-08
2	0	0	0	0	53.6751	0.0146944	0.0145212	-0.00159205	3	1.6358e-05	-2.31184e-08
2	0	0	0	0	53.7751	0.00969425	0.00947286	-0.00155699	3	1.62003e-05	-1.47492e-08
2	0	0	0	0	53.8751	0.00469405	0.0044924	-0.00150358	3	1.60471e-05	-6.75468e-09
2	0	0	0	0	53.9751	-0.000306156	-0.000490184	-0.00143615	3	1.59e-05	7.03976e-10
2	0	0	0	0	54.0751	-0.00530636	-0.00555016	-0.0013669	3	1.57595e-05	7.58651e-09
2	0	0	0	0	54.1751	-0.0103066	-0.0105338	-0.00129546	3	1.56263e-05	1.36461e-08
2	0	0	0	0	54.2751	-0.0153068	-0.015597	-0.00122701	3	1.55e-05	1.91376e-08
2	0	0	0	0	54.3751	-0.020307	-0.0205711	-0.00116162	3	1.53805e-05	2.38957e-08
2	0	0	0	0	54.4751	-0.0253072	-0.0255155	-0.00110154	3	1.52672e-05	2.81063e-08
2	0	0	0	0	54.5751	-0.0303074	-0.0304917	-0.00104763	3	1.51595e-05	3.1944e-08
2	0	0	0	0	54.6751	-0.0353076	-0.0355305	-0.000998162	3	1.50571e-05	3.54652e-08
2	0	0	0	0	54.7751	-0.0403078	-0.0405661	-0.000953444	3	1.49594e-05	3.86775e-08
2	0	0	0	0	54.8751	-0.045308	-0.0455964	-0.000911541	3	1.48659e-05	4.1563e-08
2	0	0	0	0	54.9751	-0.0503082	-0.0505567	-0.000876456	3	1.47764e-05	4.43107e-08
2	0	0	0	0	55.0751	-0.0553084	-0.0555711	-0.00084226	3	1.46903e-05	4.68053e-08
2	0	0	0	0	55.1751	-0.0603086	-0.0605378	-0.000812984	3	1.46074e-05	4.92162e-08
2	0	0	0	0	55.2751	-0.0653088	-0.065549	-0.000784499	3	1.45274e-05	5.14231e-08
2	0	0	0	0	55.3751	-0.070309	-0.0705835	-0.000759568	3	1.44501e-05	5.3613e-08
2	0	0	0	0	55.4751	-0.0753092	-0.0756032	-0.000735626	3	1.43752e-05	5.56157e-08
2	0	0	0	0	55.5751	-0.0803094	-0.0805593	-0.000714085	3	1.43026e-05	5.75262e-08
2	0	0	0	0	55.6751	-0.0853096	-0.0855249	-0.000692505	3	1.42321e-05	5.92264e-08
2	0	0	0	0	55.7751	-0.0903098	-0.0905499	-0.000675546	3	1.41635e-05	6.11706e-08
2	0	0	0	0	55.8751	-0.09531	-0.0955897	-0.000657875	3	1.40968e-05	6.28861e-08
2	0	0	1	0	55.9753	-0.10031	-0.100507	-0.000640463	3	1.40316e-05	6.43708e-08
2	0	0	1	0	56.0753	-0.10531	-0.105572	-0.000624924	3	1.39681e-05	6.59744e-08
2	0	0	1	0	56.1753	-0.110311	-0.110522	-0.000611678	3	1.3906e-05	6.76037e-08
2	0	0	1	0	56.2753	-0.115311	-0.115508	-0.000598969	3	1.38453e-05	6.9186e-08
2	0	0	1	0	56.3753	-0.120311	-0.120492	-0.000586352	3	1.37859e-05	7.06507e-08
2	0	0	1	0	56.4753	-0.125311	-0.125522	-0.000574451	3	1.37278e-05	7.21065e-08
2	0	0	1	0	56.5753	-0.130311	-0.130605	-0.000563547	3	1.36708e-05	7.36019e-08
2	0	0	1	0	56.6753	-0.135312	-0.135527	-0.000551921	3	1.36149e-05	7.48001e-08
2	0	0	1	0	56.7753	-0.140312	-0.140577	-0.000540772	3	1.35601e-05	7.60202e-08
2	0	0	1	0	56.8753	-0.145312	-0.145541	-0.000530177	3	1.35063e-05	7.71623e-08
2	0	0	1	0	56.9753	-0.150312	-0.150556	-0.000521846	3	1.34534e-05	7.85672e-08
2	0	0	1	0	57.0753	-0.155312	-0.155544	-0.000513062	3	1.34015e-05	7.98037e-08
2	0	0	1	0	57.1753	-0.160313	-0.160576	-0.000503492	3	1.33504e-05	8.08489e-08
2	0	0	1	0	57.2753	-0.165313	-0.165556	-0.000497581	3	1.33002e-05	8.23775e-08
2	0	0	1	0	57.3753	-0.170313	-0.170556	-0.000489186	3	1.32506e-05	8.34338e-08
2	0	0	1	0	57.4753	-0.175313	-0.175519	-0.000482348	3	1.32018e-05	8.46612e-08
2	0	0	1	0	57.5753	-0.180313	-0.180556	-0.000476651	3	1.31537e-05	8.6062e-08
2	0	0	1	0	57.6753	-0.185314	-0.185526	-0.000469556	3	1.31062e-05	8.7115e-08
2	0	0	1	0	57.7753	-0.190314	-0.190525	-0.000462806	3	1.30592e-05	8.81762e-08
2	0	0	1	0	57.8753	-0.195314	-0.195587	-0.000459335	3	1.30128e-05	8.984e-08
2	1	0	1	1	57.9692	-0.199989	-0.200219	-0.000444727	3	1.29696e-05	8.90427e-08
2	1	0	0	1	58.0647	-0.195214	-0.195389	-0.000331554	3	1.29367e-05	6.4782e-08
2	1	0	0	1	58.1647	-0.190214	-0.190437	-0.000313585	3	1.29048e-05	5.97181e-08
2	1	0	0	1	58.2647	-0.185214	-0.185367	-0.000299388	3	1.28745e-05	5.54968e-08
2	1	0	0	1	58.3647	-0.180213	-0.180386	-0.000284847	3	1.28455e-05	5.13824e-08
2	1	0	0	1	58.4647	-0.175213	-0.175498	-0.000274864	3	1.28177e-05	4.82379e-08
2	1	0	0	1	58.5647	-0.170213	-0.170444	-0.000266318	3	1.27909e-05	4.53923e-08
2	1	0	0	1	58.6647	-0.165213	-0.165404	-0.000256832	3	1.27651e-05	4.24811e-08
2	1	0	0	1	58.7647	-0.160213	-0.160428	-0.000249062	3	1.27401e-05	3.99565e-08
2	1	0	0	1	58.8647	-0.155212	-0.155446	-0.000239896	3	1.27159e-05	3.7291e-08
2	1	0	0	1	58.9647	-0.150212	-0.150412	-0.000233867	3	1.26925e-05	3.51764e-08
2	1	0	0	1	59.0647	-0.145212	-0.145389	-0.000225376	3	1.26698e-05	3.27672e-08
2	1	0	0	1	59.1647	-0.140212	-0.140416	-0.000217758	3	1.26478e-05	3.05767e-08
2	1	0	0	1	59.2647	-0.135212	-0.135423	-0.000211899	3	1.26265e-05	2.86959e-08
2	1	0	0	1	59.3647	-0.130211	-0.13044	-0.000206181	3	1.26058e-05	2.68943e-08
2	1	0	0	1	59.4647	-0.125211	-0.125412	-0.000198898	3	1.25857e-05	2.49442e-08
2	1	0	0	1	59.5647	-0.120211	-0.120435	-0.000194212	3	1.25662e-05	2.33898e-08
2	1	0	0	1	59.6647	-0.115211	-0.115436	-0.000187353	3	1.25473e-05	2.16273e-08
2	1	0	0	1	59.7647	-0.110211	-0.110437	-0.000184069	3	1.25289e-05	2.0328e-08
2	1	0	0	1	59.8647	-0.10521	-0.105461	-0.000177537	3	1.2511e-05	1.87231e-08
2	1	0	0	1	59.9647	-0.10021	-0.10041	-0.000173792	3	1.24936e-05	1.74505e-08
2	1	0	1	1	60.0649	-0.09521	-0.0954254	-0.000167991	3	1.24766e-05	1.60306e-08
2	1	0	1	1	60.1649	-0.0902098	-0.0904333	-0.00016446	3	1.24601e-05	1.48727e-08
2	1	0	1	1	60.2649	-0.0852096	-0.08542	-0.000160791	3	1.24441e-05	1.37348e-08
2	1	0	1	1	60.3649	-0.0802094	-0.0804459	-0.000155107	3	1.24285e-05	1.24777e-08
2	1	0	1	1	60.4649	-0.0752092	-0.0754325	-0.000152129	3	1.24133e-05	1.14755e-08
2	1	0	1	1	60.5649	-0.070209	-0.0703938	-0.000147528	3	1.23986e-05	1.0385e-08
2	1	0	1	1	60.6649	-0.0652088	-0.0654907	-0.000143497	3	1.23843e-05	9.39769e-09
2	1	0	1	1	60.7649	-0.0602086	-0.0603894	-0.000138512	3	1.23704e-05	8.36464e-09
2	1	0	1	1	60.8649	-0.0552084	-0.0554354	-0.000134559	3	1.2357e-05	7.45931e-09
2	1	0	0	1	60.8874	-0.0540833	-0.0542777	-0.000130989	3	1.23541e-05	7.10977e-09