File: AutoAnalysis Examples/EC/C003C-20ppb-A_C01.mpt
EC-Lab ASCII FILE
Nb header lines : 59

Cyclic Voltammetry

Run on channel : 1 (SN 22398)
User :
CE vs. WE compliance from -10 V to 10 V
Electrode connection : standard
Ewe ctrl range : min = -1.00 V, max = 1.00 V
Safety Limits :
	Ewe min = -2.00 V
	Ewe max = 2.00 V
	|I| = 50.000 mA
	for t > 10 ms
Acquisition started on : 11/21/2018 10:33:11
Technique started on : 11/21/2018 10:33:11
Saved on :
	File : C003C-20ppb-A_C01.mpr
	Directory : \\ECCOMPUTER\Users\Lab User\Google Drive\Electrochemical Data\EC-Lab\Data\FREDsense\Tim\2018.11.21 - EC comparison to High Throughput\
	Host : 172.16.1.30
Device : SP-50 (SN 0301030103010301)
Address : USB
EC-Lab for windows v11.02 (software)
Internet server v11.02 (firmware)
Command interpretor v11.02 (firmware)
Electrode material : Au/Pd
Initial state :
Electrolyte : NaCl (0.2M)
Comments : Fe(CN)63-/Fe(CN)64- 5.10-3 M
Reference electrode : SCE Saturated Calomel Electrode (0.241 V)
Electrode surface area : 0.001 cm²
Characteristic mass : 0.001 g
Equivalent Weight : 0.000 g/eq.
Density : 0.000 g/cm3
Cycle Definition : Charge/Discharge alternance
Ei (V)              -0.100
vs.                 Ref
dE/dt               50.000
dE/dt unit          mV/s
E1 (V)              0.300
vs.                 Ref
Step percent        50
N                   10
E range min (V)     -1.000
E range max (V)     1.000
I Range             Auto
I Range min         Unset
I Range max         Unset
I Range init        Unset
Bandwidth           5
E2 (V)              -0.200
vs.                 Ref
nc cycles           2
Reverse Scan        1
Ef (V)              0.000
vs.                 Eoc

mode	ox/red	error	control changes	counter inc.	time/s	control/V	Ewe/V	<I>/mA	cycle number	(Q-Qo)/C	P/W
2	1	0	1	0	0.000000000000000E+000	-0.0984885	-0.0988089	-0.000157625	1	0.0000000E+000	1.55748e-08
2	1	0	0	0	0.111	-0.0929384	-0.0930956	-2.00491e-05	1	1.59782e-09	1.86648e-09
2	1	0	1	0	0.2265	-0.0871632	-0.0872588	3.58703e-05	1	6.86587e-09	-3.13e-09
2	1	0	1	0	0.3265	-0.082163	-0.0822996	4.32114e-05	1	1.11111e-08	-3.55628e-09
2	1	0	1	0	0.4265	-0.0771629	-0.0772873	4.70074e-05	1	1.58788e-08	-3.63307e-09
2	1	0	1	0	0.5265	-0.0721627	-0.072257	5.05932e-05	1	2.10206e-08	-3.65571e-09
2	1	0	1	0	0.6265	-0.0671625	-0.0672638	5.39246e-05	1	2.64543e-08	-3.62717e-09
2	1	0	1	0	0.7265	-0.0621624	-0.0623045	5.60566e-05	1	3.21602e-08	-3.49258e-09
2	1	0	1	0	0.8265	-0.0571622	-0.0572923	5.7544e-05	1	3.80865e-08	-3.29682e-09
2	1	0	1	0	0.9265	-0.052162	-0.0522758	6.37122e-05	1	4.42627e-08	-3.3306e-09
2	1	0	1	0	1.0265	-0.0471618	-0.0472476	6.32671e-05	1	5.06856e-08	-2.98922e-09
2	1	0	1	0	1.1265	-0.0421617	-0.0422258	6.70984e-05	1	5.73694e-08	-2.83328e-09
2	1	0	1	0	1.2265	-0.0371615	-0.0372835	6.84373e-05	1	6.43505e-08	-2.55158e-09
2	1	0	1	0	1.3265	-0.0321613	-0.0323083	7.24612e-05	1	7.16723e-08	-2.3411e-09
2	1	0	1	0	1.4265	-0.0271612	-0.0272356	7.74406e-05	1	7.94051e-08	-2.10914e-09
2	1	0	1	0	1.5265	-0.022161	-0.0222668	8.28617e-05	1	8.76682e-08	-1.84507e-09
2	1	0	1	0	1.6265	-0.0171608	-0.0172609	9.13934e-05	1	9.66044e-08	-1.57753e-09
2	1	0	1	0	1.7265	-0.0121607	-0.0122423	0.000101137	1	1.06405e-07	-1.23814e-09
2	1	0	1	0	1.8265	-0.00716049	-0.00726393	0.00011571	1	1.17337e-07	-8.40506e-10
2	1	0	1	0	1.9265	-0.00216032	-0.00232057	0.00013075	1	1.29797e-07	-3.03415e-10
2	1	0	1	0	2.0265	0.00283985	0.00275213	0.000156561	1	1.44376e-07	4.30876e-10
2	1	0	1	0	2.1265	0.00784002	0.00775062	0.000186553	1	1.61637e-07	1.4459e-09
2	1	0	1	0	2.2265	0.0128402	0.0127745	0.0002294	1	1.82548e-07	2.93048e-09
2	1	0	1	0	2.3265	0.0178404	0.0177826	0.00028339	1	2.08264e-07	5.0394e-09
2	1	0	1	0	2.4265	0.0228405	0.0227673	0.000353039	1	2.40261e-07	8.03774e-09
2	1	0	1	0	2.5265	0.0278407	0.0277149	0.000443842	1	2.8035e-07	1.2301e-08
2	1	0	1	0	2.6265	0.0328408	0.0327409	0.000558036	1	3.30476e-07	1.82706e-08
2	1	0	1	0	2.7265	0.037841	0.0377521	0.000692256	1	3.92906e-07	2.61341e-08
2	1	0	1	0	2.8265	0.0428412	0.0427559	0.000848107	1	4.69914e-07	3.62616e-08
2	1	0	1	0	2.9265	0.0478413	0.0476738	0.00102139	1	5.63449e-07	4.86935e-08
2	1	0	1	0	3.0265	0.0528415	0.0527529	0.00120945	1	6.75147e-07	6.38021e-08
2	1	0	1	0	3.1265	0.0578417	0.0577673	0.00139454	1	8.05515e-07	8.05589e-08
2	1	0	1	0	3.2265	0.0628419	0.062734	0.00157095	1	9.54131e-07	9.85517e-08
2	1	0	1	0	3.3265	0.067842	0.0677293	0.00172858	1	1.11954e-06	1.17075e-07
2	1	0	1	0	3.4265	0.0728422	0.0727967	0.00185321	1	1.29912e-06	1.34907e-07
2	1	0	1	0	3.5265	0.0778423	0.0778111	0.00194692	1	1.48965e-06	1.51492e-07
2	1	0	1	0	3.6265	0.0828425	0.0827035	0.00200132	1	1.68752e-06	1.65516e-07
2	1	0	1	0	3.7265	0.0878427	0.0877476	0.00202285	1	1.88921e-06	1.775e-07
2	1	0	1	0	3.8265	0.0928428	0.0927641	0.00201624	1	2.09164e-06	1.87035e-07
2	1	0	1	0	3.9265	0.097843	0.0977043	0.00199002	1	2.29231e-06	1.94433e-07
2	1	0	1	0	4.0265	0.102843	0.102714	0.00194596	1	2.48939e-06	1.99878e-07
2	1	0	1	0	4.1265	0.107843	0.107753	0.00189384	1	2.68167e-06	2.04067e-07
2	1	0	1	0	4.2265	0.112844	0.112759	0.00183778	1	2.86846e-06	2.07226e-07
2	1	0	1	0	4.3265	0.117844	0.11777	0.0017793	1	3.04951e-06	2.09549e-07
2	1	0	1	0	4.4265	0.122844	0.122735	0.00172326	1	3.22477e-06	2.11504e-07
2	1	0	1	0	4.5265	0.127844	0.127725	0.00166875	1	3.3944e-06	2.13142e-07
2	1	0	1	0	4.6265	0.132844	0.132714	0.00161569	1	3.55867e-06	2.14425e-07
2	1	0	1	0	4.7265	0.137844	0.137767	0.00156706	1	3.71791e-06	2.1589e-07
2	1	0	1	0	4.8265	0.142845	0.142744	0.00152174	1	3.87252e-06	2.17219e-07
2	1	0	1	0	4.9265	0.147845	0.147711	0.00148263	1	4.02281e-06	2.19002e-07
2	1	0	1	0	5.0265	0.152845	0.152709	0.00144715	1	4.16917e-06	2.20992e-07
2	1	0	1	0	5.1265	0.157845	0.157736	0.00140971	1	4.31194e-06	2.22362e-07
2	1	0	1	0	5.2265	0.162845	0.162701	0.00137683	1	4.45137e-06	2.24011e-07
2	1	0	1	0	5.3265	0.167845	0.167744	0.0013481	1	4.58775e-06	2.26135e-07
2	1	0	1	0	5.4265	0.172846	0.172749	0.00131972	1	4.72127e-06	2.2798e-07
2	1	0	1	0	5.5265	0.177846	0.177748	0.00129332	1	4.85214e-06	2.29884e-07
2	1	0	1	0	5.6265	0.182846	0.182794	0.00127136	1	4.98055e-06	2.32397e-07
2	1	0	1	0	5.7265	0.187846	0.187753	0.00124781	1	5.10669e-06	2.34281e-07
2	1	0	1	0	5.8265	0.192846	0.192719	0.0012285	1	5.23073e-06	2.36755e-07
2	1	0	1	0	5.9265	0.197845	0.197717	0.0012082	1	5.35284e-06	2.38882e-07
2	1	0	0	0	6.0267	0.202847	0.202681	0.0011924	1	5.47343e-06	2.41677e-07
2	1	0	0	0	6.1267	0.207847	0.207743	0.00117901	1	5.59218e-06	2.44932e-07
2	1	0	0	0	6.2267	0.212847	0.212799	0.0011636	1	5.70943e-06	2.47612e-07
2	1	0	0	0	6.3267	0.217847	0.217701	0.00115114	1	5.82527e-06	2.50605e-07
2	1	0	0	0	6.4267	0.222847	0.22273	0.00113805	1	5.93982e-06	2.53478e-07
2	1	0	0	0	6.5267	0.227847	0.227739	0.00112567	1	6.05314e-06	2.56359e-07
2	1	0	0	0	6.6267	0.232848	0.232702	0.00111456	1	6.16531e-06	2.5936e-07
2	1	0	0	0	6.7267	0.237848	0.23775	0.00110324	1	6.2764e-06	2.62295e-07
2	1	0	0	0	6.8267	0.242848	0.242732	0.00109429	1	6.38646e-06	2.65621e-07
2	1	0	0	0	6.9267	0.247848	0.247689	0.00108481	1	6.49557e-06	2.68695e-07
2	1	0	0	0	7.0267	0.252848	0.252667	0.00107855	1	6.60384e-06	2.72513e-07
2	1	0	0	0	7.1267	0.257848	0.257779	0.00107331	1	6.71171e-06	2.76677e-07
2	1	0	0	0	7.2267	0.262849	0.26274	0.00106571	1	6.81883e-06	2.80004e-07
2	1	0	0	0	7.3267	0.267849	0.26771	0.00105636	1	6.92495e-06	2.82797e-07
2	1	0	0	0	7.4267	0.272849	0.272712	0.00104826	1	7.03026e-06	2.85873e-07
2	1	0	0	0	7.5267	0.277849	0.277742	0.00104239	1	7.13496e-06	2.89515e-07
2	1	0	0	0	7.6267	0.282849	0.282722	0.00103885	1	7.23917e-06	2.93707e-07
2	1	0	0	0	7.7267	0.287849	0.287662	0.00103407	1	7.34292e-06	2.97463e-07
2	1	0	0	0	7.8267	0.29285	0.292701	0.00103026	1	7.44625e-06	3.01557e-07
2	1	0	0	0	7.9267	0.29785	0.297714	0.0010261	1	7.54923e-06	3.05483e-07
2	0	0	1	0	8.0051	0.29825	0.298072	0.000896022	1	7.62566e-06	2.67079e-07
2	0	0	1	0	8.1051	0.29325	0.293036	0.000846431	1	7.71236e-06	2.48035e-07
2	0	0	1	0	8.2051	0.288249	0.288146	0.000812895	1	7.79498e-06	2.34233e-07
2	0	0	1	0	8.3051	0.283249	0.283079	0.000783808	1	7.87454e-06	2.21879e-07
2	0	0	1	0	8.4051	0.278249	0.278028	0.000761414	1	7.95161e-06	2.11695e-07
2	0	0	1	0	8.5051	0.273249	0.273095	0.000743338	1	8.02659e-06	2.03002e-07
2	0	0	1	0	8.6051	0.268249	0.268113	0.000724971	1	8.09978e-06	1.94374e-07
2	0	0	1	0	8.7051	0.263249	0.263089	0.000708318	1	8.1713e-06	1.86351e-07
2	0	0	1	0	8.8051	0.258248	0.258132	0.000695492	1	8.2413e-06	1.79529e-07
2	0	0	1	0	8.9051	0.253248	0.253094	0.000683049	1	8.30991e-06	1.72876e-07
2	0	0	1	0	9.0051	0.248248	0.248067	0.000669763	1	8.37731e-06	1.66146e-07
2	0	0	1	0	9.1051	0.243248	0.243096	0.00065885	1	8.44356e-06	1.60164e-07
2	0	0	1	0	9.2051	0.238248	0.238068	0.000647248	1	8.50871e-06	1.54089e-07
2	0	0	1	0	9.3051	0.233248	0.233071	0.000637054	1	8.5728e-06	1.48479e-07
2	0	0	1	0	9.4051	0.228247	0.228125	0.000627233	1	8.63589e-06	1.43088e-07
2	0	0	1	0	9.5051	0.223247	0.223064	0.000618249	1	8.69803e-06	1.37909e-07
2	0	0	1	0	9.6051	0.218247	0.218125	0.000608569	1	8.75924e-06	1.32744e-07
2	0	0	1	0	9.7051	0.213247	0.213139	0.000599888	1	8.81954e-06	1.27859e-07
2	0	0	1	0	9.8051	0.208247	0.208093	0.000590655	1	8.87894e-06	1.22911e-07
2	0	0	1	0	9.9051	0.203247	0.203089	0.000581655	1	8.93745e-06	1.18128e-07
2	0	0	1	0	10.0052	0.198246	0.198066	0.000575496	1	8.99511e-06	1.13986e-07
2	0	0	0	0	10.1053	0.193246	0.193095	0.000566674	1	9.05201e-06	1.09422e-07
2	0	0	0	0	10.2053	0.188246	0.188098	0.000557891	1	9.10801e-06	1.04938e-07
2	0	0	0	0	10.3053	0.183246	0.183105	0.000548962	1	9.16313e-06	1.00518e-07
2	0	0	0	0	10.4053	0.178246	0.178065	0.0005382	1	9.21735e-06	9.58345e-08
2	0	0	0	0	10.5053	0.173246	0.173083	0.000531251	1	9.27068e-06	9.19507e-08
2	0	0	0	0	10.6053	0.168245	0.16816	0.000522138	1	9.32312e-06	8.78028e-08
2	0	0	0	0	10.7053	0.163245	0.163099	0.000512896	1	9.37461e-06	8.36529e-08
2	0	0	0	0	10.8053	0.158245	0.158071	0.000502787	1	9.42515e-06	7.9476e-08
2	0	0	0	0	10.9053	0.153245	0.153164	0.000492116	1	9.47457e-06	7.53743e-08
2	0	0	0	0	11.0053	0.148245	0.148104	0.000486126	1	9.52301e-06	7.19971e-08
2	0	0	0	0	11.1053	0.143244	0.143027	0.000467424	1	9.57033e-06	6.68541e-08
2	0	0	0	0	11.2053	0.138244	0.138052	0.000456191	1	9.61635e-06	6.29779e-08
2	0	0	0	0	11.3053	0.133244	0.1331	0.000441548	1	9.66098e-06	5.87699e-08
2	0	0	0	0	11.4053	0.128244	0.128098	0.000426265	1	9.70407e-06	5.46037e-08
2	0	0	0	0	11.5053	0.123244	0.123134	0.000407043	1	9.74537e-06	5.01206e-08
2	0	0	0	0	11.6053	0.118244	0.118088	0.000382872	1	9.78462e-06	4.52127e-08
2	0	0	0	0	11.7053	0.113244	0.113079	0.000357512	1	9.82146e-06	4.04271e-08
2	0	0	0	0	11.8053	0.108243	0.108095	0.000325194	1	9.85542e-06	3.51517e-08
2	0	0	0	0	11.9053	0.103243	0.1031	0.000287022	1	9.88591e-06	2.9592e-08
2	0	0	0	0	12.0053	0.098243	0.0981071	0.000238776	1	9.91213e-06	2.34256e-08
2	0	0	0	0	12.1053	0.0932429	0.0931182	0.000184154	1	9.93316e-06	1.71481e-08
2	0	0	0	0	12.2053	0.0882427	0.08809	0.000113581	1	9.94798e-06	1.00054e-08
2	0	0	0	0	12.3053	0.0832425	0.0831085	2.78968e-05	1	9.95491e-06	2.31846e-09
2	0	0	0	0	12.4053	0.0782424	0.0780771	-7.76595e-05	1	9.95233e-06	-6.06343e-09
2	0	0	0	0	12.5053	0.0732422	0.0731115	-0.000202782	1	9.93827e-06	-1.48257e-08
2	0	0	0	0	12.6053	0.068242	0.068095	-0.000346826	1	9.91074e-06	-2.36172e-08
2	0	0	0	0	12.7053	0.0632419	0.0631792	-0.000513753	1	9.86769e-06	-3.24585e-08
2	0	0	0	0	12.8053	0.0582417	0.0580737	-0.000692342	1	9.80735e-06	-4.02069e-08
2	0	0	0	0	12.9053	0.0532415	0.0531091	-0.000876698	1	9.72861e-06	-4.65606e-08
2	0	0	0	0	13.0053	0.0482414	0.0481403	-0.00106475	1	9.63112e-06	-5.12572e-08
2	0	0	0	0	13.1053	0.0432412	0.0431174	-0.00123289	1	9.5159e-06	-5.31592e-08
2	0	0	0	0	13.2053	0.038241	0.0381083	-0.0013736	1	9.38518e-06	-5.23455e-08
2	0	0	0	0	13.3053	0.0332409	0.0331077	-0.0014755	1	9.24217e-06	-4.88504e-08
2	0	0	0	0	13.4053	0.0282407	0.028122	-0.00153725	1	9.09093e-06	-4.32304e-08
2	0	0	0	0	13.5053	0.0232405	0.0231341	-0.00155907	1	8.93562e-06	-3.60675e-08
2	0	0	0	0	13.6053	0.0182404	0.0180932	-0.0015431	1	8.78009e-06	-2.79196e-08
2	0	0	0	0	13.7053	0.0132402	0.0130947	-0.00150205	1	8.62749e-06	-1.9669e-08
2	0	0	0	0	13.8053	0.00824003	0.00811424	-0.00143994	1	8.48007e-06	-1.1684e-08
2	0	0	0	0	13.9053	0.00323986	0.00314438	-0.00137038	1	8.33924e-06	-4.30898e-09
2	0	0	0	0	14.0053	-0.0017603	-0.00193362	-0.00129857	1	8.20562e-06	2.51093e-09
2	0	0	0	0	14.1053	-0.00676047	-0.00690348	-0.00122267	1	8.0794e-06	8.4407e-09
2	0	0	0	0	14.2053	-0.0117606	-0.0119359	-0.00115342	1	7.96039e-06	1.37671e-08
2	0	0	0	0	14.3053	-0.0167608	-0.0169566	-0.00108726	1	7.84815e-06	1.84363e-08
2	0	0	0	0	14.4053	-0.021761	-0.021899	-0.00102798	1	7.74216e-06	2.25117e-08
2	0	0	0	0	14.5053	-0.0267611	-0.0268625	-0.000973834	1	7.6419e-06	2.61596e-08
2	0	0	0	0	14.6053	-0.0317613	-0.0318917	-0.000924766	1	7.54679e-06	2.94924e-08
2	0	0	0	0	14.7053	-0.0367615	-0.0369591	-0.000880071	1	7.45635e-06	3.25266e-08
2	0	0	0	0	14.8053	-0.0417617	-0.0418558	-0.00084205	1	7.37009e-06	3.52447e-08
2	0	0	0	0	14.9053	-0.0467618	-0.046938	-0.000805098	1	7.28766e-06	3.77897e-08
2	0	0	0	0	15.0053	-0.051762	-0.0518464	-0.000771203	1	7.20865e-06	3.99841e-08
2	0	0	0	0	15.1053	-0.0567622	-0.0569552	-0.000742407	1	7.13271e-06	4.22839e-08
2	0	0	0	0	15.2053	-0.0617623	-0.0619261	-0.000715403	1	7.05964e-06	4.43021e-08
2	0	0	0	0	15.3053	-0.0667625	-0.0669426	-0.000691161	1	6.98914e-06	4.62681e-08
2	0	0	0	0	15.4053	-0.0717627	-0.0719432	-0.000667514	1	6.92104e-06	4.80231e-08
2	0	0	0	0	15.5053	-0.0767628	-0.076876	-0.000646614	1	6.85512e-06	4.97091e-08
2	0	0	0	0	15.6053	-0.081763	-0.0818914	-0.000628074	1	6.79121e-06	5.14339e-08
2	0	0	0	0	15.7053	-0.0867632	-0.0869387	-0.000609511	1	6.72916e-06	5.29901e-08
2	0	0	0	0	15.8053	-0.0917633	-0.0918852	-0.000592	1	6.66883e-06	5.43961e-08
2	0	0	0	0	15.9053	-0.0967635	-0.0968678	-0.000576847	1	6.61013e-06	5.58779e-08
2	0	0	1	0	16.0055	-0.101764	-0.101899	-0.00056214	1	6.55281e-06	5.72815e-08
2	0	0	1	0	16.1055	-0.106764	-0.106892	-0.000549268	1	6.49698e-06	5.87125e-08
2	0	0	1	0	16.2055	-0.111764	-0.111867	-0.000536734	1	6.44245e-06	6.0043e-08
2	0	0	1	0	16.3055	-0.116764	-0.116921	-0.000524563	1	6.38913e-06	6.13325e-08
2	0	0	1	0	16.4055	-0.121764	-0.12189	-0.000514889	1	6.33696e-06	6.27597e-08
2	0	0	1	0	16.5055	-0.126765	-0.126857	-0.000503052	1	6.28586e-06	6.38155e-08
2	0	0	1	0	16.6055	-0.131765	-0.131941	-0.000493268	1	6.23574e-06	6.50822e-08
2	0	0	1	0	16.7055	-0.136765	-0.136854	-0.00048552	1	6.1866e-06	6.64452e-08
2	0	0	1	0	16.8055	-0.141765	-0.141915	-0.000476109	1	6.13836e-06	6.75668e-08
2	0	0	1	0	16.9055	-0.146765	-0.146838	-0.000468105	1	6.09097e-06	6.87356e-08
2	0	0	1	0	17.0055	-0.151765	-0.151964	-0.00045894	1	6.04439e-06	6.97421e-08
2	0	0	1	0	17.1055	-0.156766	-0.156887	-0.000451406	1	5.99853e-06	7.08196e-08
2	0	0	1	0	17.2055	-0.161766	-0.161891	-0.000446179	1	5.95343e-06	7.22322e-08
2	0	0	1	0	17.3055	-0.166766	-0.166911	-0.000439592	1	5.90898e-06	7.33729e-08
2	0	0	1	0	17.4055	-0.171766	-0.171923	-0.000432184	1	5.86516e-06	7.43022e-08
2	0	0	1	0	17.5055	-0.176766	-0.176851	-0.000427402	1	5.82192e-06	7.55866e-08
2	0	0	1	0	17.6055	-0.181766	-0.181909	-0.000422843	1	5.77923e-06	7.6919e-08
2	0	0	1	0	17.7055	-0.186767	-0.186902	-0.000416793	1	5.73702e-06	7.78996e-08
2	0	0	1	0	17.8055	-0.191767	-0.19189	-0.000412024	1	5.69527e-06	7.90633e-08
2	0	0	1	0	17.9055	-0.196767	-0.196858	-0.000408882	1	5.65393e-06	8.04915e-08
2	1	0	1	1	17.9959	-0.198717	-0.198827	-0.000297269	1	5.61964e-06	5.91051e-08
2	1	0	1	1	18.0959	-0.193717	-0.193806	-0.00026648	1	5.59204e-06	5.16454e-08
2	1	0	1	1	18.1959	-0.188717	-0.188801	-0.000248968	1	5.56665e-06	4.70054e-08
2	1	0	1	1	18.2959	-0.183716	-0.183812	-0.000234017	1	5.54281e-06	4.30152e-08
2	1	0	1	1	18.3959	-0.178716	-0.178851	-0.00022222	1	5.52024e-06	3.97443e-08
2	1	0	1	1	18.4959	-0.173716	-0.173849	-0.000212948	1	5.49876e-06	3.70207e-08
2	1	0	1	1	18.5959	-0.168716	-0.168821	-0.000202708	1	5.47825e-06	3.42213e-08
2	1	0	1	1	18.6959	-0.163716	-0.163818	-0.00019575	1	5.45864e-06	3.20674e-08
2	1	0	1	1	18.7959	-0.158716	-0.158764	-0.000187374	1	5.43985e-06	2.97483e-08
2	1	0	1	1	18.8959	-0.153715	-0.153769	-0.000180284	1	5.42182e-06	2.7722e-08
2	1	0	1	1	18.9959	-0.148715	-0.148763	-0.000172932	1	5.40448e-06	2.57259e-08
2	1	0	1	1	19.0959	-0.143715	-0.143806	-0.000167603	1	5.3878e-06	2.41022e-08
2	1	0	1	1	19.1959	-0.138715	-0.13883	-0.000161507	1	5.37176e-06	2.24219e-08
2	1	0	1	1	19.2959	-0.133715	-0.133838	-0.000153138	1	5.35631e-06	2.04956e-08
2	1	0	1	1	19.3959	-0.128715	-0.128799	-0.000148171	1	5.34145e-06	1.90842e-08
2	1	0	1	1	19.4959	-0.123714	-0.123792	-0.000144556	1	5.32711e-06	1.78949e-08
2	1	0	1	1	19.5959	-0.118714	-0.118802	-0.00013921	1	5.3133e-06	1.65383e-08
2	1	0	1	1	19.6959	-0.113714	-0.113823	-0.000133702	1	5.29995e-06	1.52184e-08
2	1	0	1	1	19.7959	-0.108714	-0.108825	-0.000126915	1	5.28709e-06	1.38116e-08
2	1	0	1	1	19.8959	-0.103714	-0.103776	-0.000125169	1	5.27473e-06	1.29894e-08
2	1	0	1	1	19.996	-0.0987136	-0.0988029	-0.000120902	2	5.26276e-06	1.19455e-08
2	1	0	0	1	20.0961	-0.0937134	-0.0938104	-0.000117638	2	5.25119e-06	1.10357e-08
2	1	0	0	1	20.1961	-0.0887132	-0.0888564	-0.000112157	2	5.24007e-06	9.96589e-09
2	1	0	0	1	20.2961	-0.0837131	-0.0838113	-0.000108918	2	5.22933e-06	9.12853e-09
2	1	0	0	1	20.3961	-0.0787129	-0.0789008	-0.00010571	2	5.21899e-06	8.34059e-09
2	1	0	0	1	20.4961	-0.0737127	-0.0738048	-0.000100518	2	5.20905e-06	7.41874e-09
2	1	0	0	1	20.5961	-0.0687126	-0.0688445	-9.69963e-05	2	5.19949e-06	6.67765e-09
2	1	0	0	1	20.6961	-0.0637124	-0.0638778	-9.33522e-05	2	5.19032e-06	5.96313e-09
2	1	0	0	1	20.7961	-0.0587122	-0.0588475	-9.04182e-05	2	5.18154e-06	5.32088e-09
2	1	0	0	1	20.8961	-0.0537121	-0.0538447	-8.49901e-05	2	5.17316e-06	4.57627e-09
2	1	0	0	1	20.9961	-0.0487119	-0.0488357	-8.04964e-05	2	5.16525e-06	3.93109e-09
2	1	0	0	1	21.0961	-0.0437117	-0.0437937	-7.75818e-05	2	5.15775e-06	3.39759e-09
2	1	0	0	1	21.1961	-0.0387116	-0.038826	-7.13853e-05	2	5.15076e-06	2.7716e-09
2	1	0	0	1	21.2961	-0.0337114	-0.0338169	-6.49097e-05	2	5.1443e-06	2.19504e-09
2	1	0	0	1	21.3961	-0.0287112	-0.0287961	-5.83722e-05	2	5.13845e-06	1.68089e-09
2	1	0	0	1	21.4961	-0.023711	-0.0237838	-5.13932e-05	2	5.13334e-06	1.22233e-09
2	1	0	0	1	21.5961	-0.0187109	-0.0188734	-4.11128e-05	2	5.12908e-06	7.75936e-10
2	1	0	0	1	21.6961	-0.0137107	-0.0138611	-2.77712e-05	2	5.12588e-06	3.84939e-10
2	1	0	0	1	21.7961	-0.00871054	-0.00879157	-1.45568e-05	2	5.124e-06	1.27977e-10
2	1	0	0	1	21.8961	-0.00371037	-0.00382594	4.70222e-06	2	5.12379e-06	-1.79904e-11
2	1	0	0	1	21.9961	0.0012898	0.00122237	2.87605e-05	2	5.12579e-06	3.51561e-11
2	1	0	0	1	22.0961	0.00628997	0.00620708	5.98244e-05	2	5.13051e-06	3.71334e-10
2	1	0	0	1	22.1961	0.0112901	0.0112024	0.000101441	2	5.1388e-06	1.13638e-09
2	1	0	0	1	22.2961	0.0162903	0.0162083	0.000152603	2	5.15171e-06	2.47343e-09
2	1	0	0	1	22.3961	0.0212905	0.0211707	0.000218095	2	5.17049e-06	4.61723e-09
2	1	0	0	1	22.4961	0.0262906	0.0262127	0.000302315	2	5.19668e-06	7.92449e-09
2	1	0	0	1	22.5961	0.0312908	0.0312356	0.000402366	2	5.23204e-06	1.25681e-08
2	1	0	0	1	22.6961	0.036291	0.036199	0.00052209	2	5.27851e-06	1.88992e-08
2	1	0	0	1	22.7961	0.0412911	0.0411848	0.000664483	2	5.33813e-06	2.73666e-08
2	1	0	0	1	22.8961	0.0462913	0.0462405	0.000822918	2	5.41272e-06	3.80522e-08
2	1	0	0	1	22.9961	0.0512915	0.0511956	0.000996475	2	5.5039e-06	5.10151e-08
2	1	0	0	1	23.0961	0.0562916	0.0562248	0.00117277	2	5.61262e-06	6.59386e-08
2	1	0	0	1	23.1961	0.0612918	0.0612466	0.00134403	2	5.73884e-06	8.23173e-08
2	1	0	0	1	23.2961	0.066292	0.0662292	0.00150326	2	5.8818e-06	9.95599e-08
2	1	0	0	1	23.3961	0.0712921	0.0711397	0.0016417	2	6.03961e-06	1.1679e-07
2	1	0	0	1	23.4961	0.0762923	0.0762209	0.00174812	2	6.20971e-06	1.33243e-07
2	1	0	0	1	23.5961	0.0812925	0.0812342	0.00182466	2	6.38899e-06	1.48225e-07
2	1	0	0	1	23.6961	0.0862926	0.0862274	0.00186678	2	6.57408e-06	1.60967e-07
2	1	0	0	1	23.7961	0.0912928	0.0912047	0.00187917	2	6.7619e-06	1.71389e-07
2	1	0	0	1	23.8961	0.096293	0.0961968	0.00186559	2	6.94964e-06	1.79463e-07
2	1	0	0	1	23.9961	0.101293	0.101157	0.00183479	2	7.13515e-06	1.85602e-07
2	1	0	0	1	24.0961	0.106293	0.10617	0.00179121	2	7.31685e-06	1.90173e-07
2	1	0	0	1	24.1961	0.111293	0.111183	0.00173786	2	7.49372e-06	1.9322e-07
2	1	0	0	1	24.2961	0.116294	0.116198	0.00168257	2	7.66517e-06	1.95512e-07
2	1	0	0	1	24.3961	0.121294	0.121199	0.00162624	2	7.83096e-06	1.97098e-07
2	1	0	0	1	24.4961	0.126294	0.126228	0.00156987	2	7.99109e-06	1.98162e-07
2	1	0	0	1	24.5961	0.131294	0.131136	0.00151543	2	8.14578e-06	1.98728e-07
2	1	0	0	1	24.6961	0.136294	0.13622	0.00146604	2	8.29525e-06	1.99703e-07
2	1	0	0	1	24.7961	0.141294	0.141148	0.00141931	2	8.43983e-06	2.00333e-07
2	1	0	0	1	24.8961	0.146295	0.146145	0.00137505	2	8.57987e-06	2.00956e-07
2	1	0	0	1	24.9961	0.151295	0.151173	0.00133582	2	8.71571e-06	2.01939e-07
2	1	0	0	1	25.0961	0.156295	0.156189	0.00129624	2	8.84776e-06	2.02458e-07
2	1	0	0	1	25.1961	0.161295	0.161136	0.00126485	2	8.97623e-06	2.03812e-07
2	1	0	0	1	25.2961	0.166295	0.16616	0.00123404	2	9.10142e-06	2.05048e-07
2	1	0	0	1	25.3961	0.171295	0.171184	0.00120241	2	9.2236e-06	2.05833e-07
2	1	0	0	1	25.4961	0.176296	0.176142	0.00117632	2	9.34298e-06	2.07199e-07
2	1	0	0	1	25.5961	0.181296	0.181216	0.00115106	2	9.45977e-06	2.08591e-07
2	1	0	0	1	25.6961	0.186296	0.186193	0.00112958	2	9.57414e-06	2.1032e-07
2	1	0	0	1	25.7961	0.191296	0.191195	0.00110772	2	9.68627e-06	2.1179e-07
2	1	0	0	1	25.8961	0.196296	0.196175	0.00108586	2	9.79636e-06	2.13019e-07
2	1	0	1	1	25.9963	0.201296	0.201157	0.00106896	2	9.90475e-06	2.15028e-07
2	1	0	1	1	26.0963	0.206297	0.206193	0.0010529	2	1.00112e-05	2.17102e-07
2	1	0	1	1	26.1963	0.211297	0.211196	0.00103808	2	1.01161e-05	2.19239e-07
2	1	0	1	1	26.2963	0.216297	0.21624	0.00102236	2	1.02194e-05	2.21075e-07
2	1	0	1	1	26.3963	0.221297	0.22123	0.00100815	2	1.03214e-05	2.23032e-07
2	1	0	1	1	26.4963	0.226297	0.22621	0.000996203	2	1.0422e-05	2.25352e-07
2	1	0	1	1	26.5963	0.231297	0.231181	0.000983664	2	1.05213e-05	2.27405e-07
2	1	0	1	1	26.6963	0.236298	0.236153	0.000973233	2	1.06195e-05	2.29832e-07
2	1	0	1	1	26.7963	0.241298	0.241175	0.000961667	2	1.07166e-05	2.3193e-07
2	1	0	1	1	26.8963	0.246298	0.246217	0.000951467	2	1.08126e-05	2.34268e-07
2	1	0	1	1	26.9963	0.251298	0.25115	0.000942328	2	1.09077e-05	2.36666e-07
2	1	0	1	1	27.0963	0.256298	0.256174	0.000933335	2	1.10019e-05	2.39096e-07
2	1	0	1	1	27.1963	0.261298	0.261172	0.000925055	2	1.10952e-05	2.41599e-07
2	1	0	1	1	27.2963	0.266299	0.266144	0.000918653	2	1.11878e-05	2.44494e-07
2	1	0	1	1	27.3963	0.271299	0.271183	0.000912605	2	1.12798e-05	2.47483e-07
2	1	0	1	1	27.4963	0.276299	0.276191	0.000907217	2	1.13712e-05	2.50565e-07
2	1	0	1	1	27.5963	0.281299	0.281197	0.000903059	2	1.14621e-05	2.53938e-07
2	1	0	1	1	27.6963	0.286299	0.286144	0.00089903	2	1.15525e-05	2.57252e-07
2	1	0	1	1	27.7963	0.291299	0.291145	0.000895527	2	1.16426e-05	2.60729e-07
2	1	0	1	1	27.8963	0.2963	0.296225	0.00089265	2	1.17325e-05	2.64425e-07
2	0	0	1	1	27.9757	0.29975	0.299556	0.000797798	2	1.18031e-05	2.38985e-07
2	0	0	1	1	28.0757	0.29475	0.29456	0.000742771	2	1.18793e-05	2.18791e-07
2	0	0	1	1	28.1757	0.289749	0.289629	0.000713693	2	1.19517e-05	2.06706e-07
2	0	0	1	1	28.2757	0.284749	0.284606	0.000691051	2	1.20216e-05	1.96678e-07
2	0	0	1	1	28.3757	0.279749	0.279535	0.000670907	2	1.20894e-05	1.87542e-07
2	0	0	1	1	28.4757	0.274749	0.274571	0.000654994	2	1.21554e-05	1.79842e-07
2	0	0	1	1	28.5757	0.269749	0.269598	0.000641721	2	1.222e-05	1.73007e-07
2	0	0	1	1	28.6757	0.264749	0.264607	0.000626553	2	1.22832e-05	1.6579e-07
2	0	0	1	1	28.7757	0.259748	0.259597	0.000615271	2	1.23451e-05	1.59722e-07
2	0	0	1	1	28.8757	0.254748	0.254554	0.000604357	2	1.24059e-05	1.53841e-07
2	0	0	1	1	28.9757	0.249748	0.249576	0.00059429	2	1.24656e-05	1.4832e-07
2	0	0	1	1	29.0757	0.244748	0.244588	0.000584707	2	1.25244e-05	1.43012e-07
2	0	0	1	1	29.1757	0.239748	0.239585	0.000573226	2	1.25822e-05	1.37336e-07
2	0	0	1	1	29.2757	0.234748	0.234596	0.000567204	2	1.26391e-05	1.33064e-07
2	0	0	1	1	29.3757	0.229747	0.229589	0.000559234	2	1.26951e-05	1.28394e-07
2	0	0	1	1	29.4757	0.224747	0.224577	0.000549494	2	1.27503e-05	1.23404e-07
2	0	0	1	1	29.5757	0.219747	0.219536	0.000542132	2	1.28046e-05	1.19017e-07
2	0	0	1	1	29.6757	0.214747	0.21466	0.000534587	2	1.28582e-05	1.14755e-07
2	0	0	1	1	29.7757	0.209747	0.209601	0.000526409	2	1.2911e-05	1.10336e-07
2	0	0	1	1	29.8757	0.204747	0.204622	0.000517505	2	1.2963e-05	1.05893e-07
2	0	0	1	1	29.9757	0.199746	0.19955	0.000510301	2	1.30142e-05	1.01831e-07
2	0	0	0	1	30.0759	0.194746	0.19458	0.000503949	2	1.30648e-05	9.80582e-08
2	0	0	0	1	30.1759	0.189746	0.189585	0.000495596	2	1.31144e-05	9.39577e-08
2	0	0	0	1	30.2759	0.184746	0.184595	0.000487757	2	1.31633e-05	9.00376e-08
2	0	0	0	1	30.3759	0.179746	0.179542	0.000477768	2	1.32114e-05	8.57792e-08
2	0	0	0	1	30.4759	0.174746	0.174589	0.000470151	2	1.32587e-05	8.20831e-08
2	0	0	0	1	30.5759	0.169745	0.169588	0.000463232	2	1.33052e-05	7.85587e-08
2	0	0	0	1	30.6759	0.164745	0.164601	0.000453459	2	1.33508e-05	7.46399e-08
2	0	0	0	1	30.7759	0.159745	0.159572	0.000444567	2	1.33956e-05	7.09404e-08
2	0	0	0	1	30.8759	0.154745	0.154649	0.000435374	2	1.34394e-05	6.73301e-08
2	0	0	0	1	30.9759	0.149745	0.149576	0.000426178	2	1.34822e-05	6.37461e-08
2	0	0	0	1	31.0759	0.144745	0.144581	0.000414432	2	1.3524e-05	5.99189e-08
2	0	0	0	1	31.1759	0.139744	0.139635	0.000401523	2	1.35647e-05	5.60668e-08
2	0	0	0	1	31.2759	0.134744	0.134606	0.000390282	2	1.36041e-05	5.25343e-08
2	0	0	0	1	31.3759	0.129744	0.129575	0.000375584	2	1.36422e-05	4.86662e-08
2	0	0	0	1	31.4759	0.124744	0.124603	0.000357301	2	1.36786e-05	4.45207e-08
2	0	0	0	1	31.5759	0.119744	0.119616	0.000338085	2	1.37131e-05	4.04403e-08
2	0	0	0	1	31.6759	0.114744	0.114642	0.0003148	2	1.37456e-05	3.60893e-08
2	0	0	0	1	31.7759	0.109743	0.10959	0.000286195	2	1.37754e-05	3.13642e-08
2	0	0	0	1	31.8759	0.104743	0.104609	0.000251418	2	1.38021e-05	2.63006e-08
2	0	0	0	1	31.9759	0.0997431	0.0995892	0.000209666	2	1.38251e-05	2.08805e-08
2	0	0	0	1	32.0759	0.0947429	0.0946151	0.000158506	2	1.38434e-05	1.4997e-08
2	0	0	0	1	32.1759	0.0897427	0.0896452	9.58394e-05	2	1.3856e-05	8.59155e-09
2	0	0	0	1	32.2759	0.0847426	0.0846467	2.00805e-05	2	1.38617e-05	1.69975e-09
2	0	0	0	1	32.3759	0.0797424	0.0795846	-7.46549e-05	2	1.38588e-05	-5.94138e-09
2	0	0	0	1	32.4759	0.0747422	0.0746158	-0.000186844	2	1.38456e-05	-1.39415e-08
2	0	0	0	1	32.5759	0.0697421	0.0696502	-0.000321701	2	1.38202e-05	-2.24066e-08
2	0	0	0	1	32.6759	0.0647419	0.064621	-0.000472756	2	1.37804e-05	-3.055e-08
2	0	0	0	1	32.7759	0.0597418	0.0596596	-0.000642131	2	1.37245e-05	-3.83093e-08
2	0	0	0	1	32.8759	0.0547416	0.0546548	-0.0008241	2	1.3651e-05	-4.5041e-08
2	0	0	0	1	32.9759	0.0497414	0.0496382	-0.0010096	2	1.35592e-05	-5.01148e-08
2	0	0	0	1	33.0759	0.0447412	0.0446154	-0.00118577	2	1.34491e-05	-5.29038e-08
2	0	0	0	1	33.1759	0.0397411	0.0396031	-0.00133903	2	1.33224e-05	-5.30296e-08
2	0	0	0	1	33.2759	0.0347409	0.034629	-0.00146373	2	1.31816e-05	-5.06874e-08
2	0	0	0	1	33.3759	0.0297407	0.0296019	-0.00154898	2	1.30304e-05	-4.58527e-08
2	0	0	0	1	33.4759	0.0247406	0.0246363	-0.0015948	2	1.28726e-05	-3.929e-08
2	0	0	0	1	33.5759	0.0197404	0.0196643	-0.00160076	2	1.27123e-05	-3.14777e-08
2	0	0	0	1	33.6759	0.0147402	0.0146382	-0.00157481	2	1.25531e-05	-2.30525e-08
2	0	0	0	1	33.7759	0.00974008	0.00956025	-0.00152632	2	1.23977e-05	-1.4592e-08
2	0	0	0	1	33.8759	0.00473991	0.00456812	-0.00146282	2	1.2248e-05	-6.68234e-09
2	0	0	0	1	33.9759	-0.000260253	-0.000359334	-0.00139134	2	1.21051e-05	4.99957e-10
2	0	0	0	1	34.0759	-0.00526042	-0.0053769	-0.0013182	2	1.19693e-05	7.08785e-09
2	0	0	0	1	34.1759	-0.0102606	-0.0104411	-0.00124543	2	1.18409e-05	1.30036e-08
2	0	0	0	1	34.2759	-0.0152608	-0.0154555	-0.00117975	2	1.17194e-05	1.82336e-08
2	0	0	0	1	34.3759	-0.0202609	-0.020471	-0.00111616	2	1.16046e-05	2.28488e-08
2	0	0	0	1	34.4759	-0.0252611	-0.0254663	-0.00105941	2	1.14957e-05	2.69793e-08
2	0	0	0	1	34.5759	-0.0302613	-0.0304637	-0.00100709	2	1.13923e-05	3.06796e-08
2	0	0	0	1	34.6759	-0.0352614	-0.0353816	-0.000959434	2	1.12938e-05	3.39463e-08
2	0	0	0	1	34.7759	-0.0402616	-0.0404215	-0.000918344	2	1.11999e-05	3.71208e-08
2	0	0	0	1	34.8759	-0.0452618	-0.0454295	-0.000878346	2	1.111e-05	3.99028e-08
2	0	0	0	1	34.9759	-0.0502619	-0.0504322	-0.000843394	2	1.10237e-05	4.25342e-08
2	0	0	0	1	35.0759	-0.0552621	-0.0554106	-0.000811182	2	1.09407e-05	4.4948e-08
2	0	0	0	1	35.1759	-0.0602623	-0.0603868	-0.000783358	2	1.08608e-05	4.73045e-08
2	0	0	0	1	35.2759	-0.0652625	-0.0654595	-0.000757325	2	1.07836e-05	4.95741e-08
2	0	0	0	1	35.3759	-0.0702626	-0.0704633	-0.000731627	2	1.0709e-05	5.15528e-08
2	0	0	0	1	35.4759	-0.0752628	-0.0754575	-0.000709934	2	1.06368e-05	5.35699e-08
2	0	0	0	1	35.5759	-0.080263	-0.0804295	-0.000689924	2	1.05666e-05	5.54903e-08
2	0	0	0	1	35.6759	-0.0852631	-0.0854237	-0.000669992	2	1.04985e-05	5.72332e-08
2	0	0	0	1	35.7759	-0.0902633	-0.0904212	-0.000651131	2	1.04322e-05	5.8876e-08
2	0	0	0	1	35.8759	-0.0952635	-0.0954186	-0.000637137	2	1.03676e-05	6.07947e-08
2	0	0	1	1	35.9761	-0.100264	-0.100443	-0.000620424	2	1.03045e-05	6.23169e-08
2	0	0	1	1	36.0761	-0.105264	-0.105328	-0.000604976	2	1.0243e-05	6.37207e-08
2	0	0	1	1	36.1761	-0.110264	-0.110315	-0.000592477	2	1.01829e-05	6.53594e-08
2	0	0	1	1	36.2761	-0.115264	-0.11546	-0.000580305	2	1.01241e-05	6.70022e-08
2	0	0	1	1	36.3761	-0.120264	-0.120431	-0.000566934	2	1.00665e-05	6.82765e-08
2	0	0	1	1	36.4761	-0.125264	-0.125331	-0.000556199	2	1.00101e-05	6.97091e-08
2	0	0	1	1	36.5761	-0.130265	-0.130348	-0.000546028	2	9.95474e-06	7.11735e-08
2	0	0	1	1	36.6761	-0.135265	-0.135355	-0.00053718	2	9.90043e-06	7.27098e-08
2	0	0	1	1	36.7761	-0.140265	-0.140382	-0.00052666	2	9.84711e-06	7.39334e-08
2	0	0	1	1	36.8761	-0.145265	-0.145406	-0.00051781	2	9.79471e-06	7.52925e-08
2	0	0	1	1	36.9761	-0.150265	-0.15038	-0.000507551	2	9.74322e-06	7.63254e-08
2	0	0	1	1	37.0761	-0.155266	-0.155447	-0.000500529	2	9.69255e-06	7.78059e-08
2	0	0	1	1	37.1761	-0.160266	-0.160371	-0.000492404	2	9.64268e-06	7.89675e-08
2	0	0	1	1	37.2761	-0.165266	-0.165365	-0.000485096	2	9.59359e-06	8.02178e-08
2	0	0	1	1	37.3761	-0.170266	-0.170439	-0.000477429	2	9.54516e-06	8.13726e-08
2	0	0	1	1	37.4761	-0.175266	-0.175416	-0.000473562	2	9.4974e-06	8.30701e-08
2	0	0	1	1	37.5761	-0.180266	-0.180409	-0.000467353	2	9.45024e-06	8.43146e-08
2	0	0	1	1	37.6761	-0.185266	-0.185412	-0.000460068	2	9.40365e-06	8.5302e-08
2	0	0	1	1	37.7761	-0.190267	-0.190385	-0.000454944	2	9.35758e-06	8.66143e-08
2	0	0	1	1	37.8761	-0.195267	-0.195415	-0.000452773	2	9.31196e-06	8.84786e-08
2	1	0	0	0	37.971	-0.199992	-0.200155	-0.000430833	2	9.26911e-06	8.62332e-08
2	1	0	1	0	38.0665	-0.195217	-0.195355	-0.000310494	2	9.23821e-06	6.06566e-08
2	1	0	1	0	38.1665	-0.190217	-0.19036	-0.000290242	2	9.20853e-06	5.52505e-08
2	1	0	1	0	38.2665	-0.185217	-0.1853	-0.00027598	2	9.18052e-06	5.11391e-08
2	1	0	1	0	38.3665	-0.180216	-0.180322	-0.000262748	2	9.15387e-06	4.73792e-08
2	1	0	1	0	38.4665	-0.175216	-0.175351	-0.000251673	2	9.1284e-06	4.4131e-08
2	1	0	1	0	38.5665	-0.170216	-0.170376	-0.000242553	2	9.10395e-06	4.13251e-08
2	1	0	1	0	38.6665	-0.165216	-0.165249	-0.000234791	2	9.08045e-06	3.8799e-08
2	1	0	1	0	38.7665	-0.160216	-0.160262	-0.000225712	2	9.05779e-06	3.61731e-08
2	1	0	1	0	38.8665	-0.155215	-0.155311	-0.000218183	2	9.03595e-06	3.38864e-08
2	1	0	1	0	38.9665	-0.150215	-0.150325	-0.000210634	2	9.01487e-06	3.16634e-08
2	1	0	1	0	39.0665	-0.145215	-0.145287	-0.000202895	2	8.99449e-06	2.9478e-08
2	1	0	1	0	39.1665	-0.140215	-0.140285	-0.000196434	2	8.97478e-06	2.75567e-08
2	1	0	1	0	39.2665	-0.135215	-0.135311	-0.000190764	2	8.95573e-06	2.58124e-08
2	1	0	1	0	39.3665	-0.130215	-0.130302	-0.000185215	2	8.93728e-06	2.41339e-08
2	1	0	1	0	39.4665	-0.125214	-0.125272	-0.00017816	2	8.91943e-06	2.23185e-08
2	1	0	1	0	39.5665	-0.120214	-0.120332	-0.000172918	2	8.90216e-06	2.08075e-08
2	1	0	1	0	39.6665	-0.115214	-0.11538	-0.000168343	2	8.8854e-06	1.94233e-08
2	1	0	1	0	39.7665	-0.110214	-0.110328	-0.000163031	2	8.86916e-06	1.79869e-08
2	1	0	1	0	39.8665	-0.105214	-0.105285	-0.000157524	2	8.85342e-06	1.65849e-08
2	1	0	1	0	39.9665	-0.100214	-0.100313	-0.000153929	2	8.83814e-06	1.54411e-08
2	1	0	0	0	40.0667	-0.0952135	-0.0953306	-0.000149326	3	8.82327e-06	1.42353e-08
2	1	0	0	0	40.1667	-0.0902133	-0.0903841	-0.000143682	3	8.8089e-06	1.29866e-08
2	1	0	0	0	40.2667	-0.0852131	-0.0853241	-0.000139982	3	8.79493e-06	1.19438e-08
2	1	0	0	0	40.3667	-0.080213	-0.080332	-0.000135815	3	8.78139e-06	1.09103e-08
2	1	0	0	0	40.4667	-0.0752128	-0.0753579	-0.000131944	3	8.76827e-06	9.94305e-09
2	1	0	0	0	40.5667	-0.0702126	-0.0703901	-0.000127145	3	8.75556e-06	8.94976e-09
2	1	0	0	0	40.6667	-0.0652125	-0.0654192	-0.000125423	3	8.74326e-06	8.20507e-09
2	1	0	0	0	40.7667	-0.0602123	-0.0603772	-0.00011799	3	8.73139e-06	7.1239e-09
2	1	0	0	0	40.8667	-0.0552121	-0.0553883	-0.000115971	3	8.71994e-06	6.42343e-09
2	1	0	0	0	40.9667	-0.0502119	-0.0503347	-0.000111283	3	8.70898e-06	5.60139e-09
2	1	0	0	0	41.0667	-0.0452118	-0.0452917	-0.000106378	3	8.69846e-06	4.81802e-09
2	1	0	0	0	41.1667	-0.0402116	-0.0403218	-9.97324e-05	3	8.68847e-06	4.02139e-09
2	1	0	0	0	41.2667	-0.0352114	-0.0352947	-9.37867e-05	3	8.67904e-06	3.31017e-09
2	1	0	0	0	41.3667	-0.0302113	-0.0303587	-8.70426e-05	3	8.67026e-06	2.6425e-09
2	1	0	0	0	41.4667	-0.0252111	-0.0253369	-8.08567e-05	3	8.66221e-06	2.04866e-09
2	1	0	0	0	41.5667	-0.0202109	-0.0203596	-7.02477e-05	3	8.65503e-06	1.43022e-09
2	1	0	0	0	41.6667	-0.0152108	-0.0153474	-5.65811e-05	3	8.64891e-06	8.68372e-10
2	1	0	0	0	41.7667	-0.0102106	-0.0103245	-4.46421e-05	3	8.64408e-06	4.60907e-10
2	1	0	0	0	41.8667	-0.00521042	-0.00534404	-2.58193e-05	3	8.64087e-06	1.3798e-10
2	1	0	0	0	41.9667	-0.000210252	-0.000248021	-1.03327e-06	3	8.63974e-06	2.56272e-13
2	1	0	0	0	42.0667	0.00478992	0.00463067	2.69517e-05	3	8.64121e-06	1.24805e-10
2	1	0	0	0	42.1667	0.00979008	0.00967474	6.47756e-05	3	8.64603e-06	6.26687e-10
2	1	0	0	0	42.2667	0.0147902	0.0146934	0.000112394	3	8.65514e-06	1.65145e-09
2	1	0	0	0	42.3667	0.0197904	0.0196675	0.000173375	3	8.66966e-06	3.40986e-09
2	1	0	0	0	42.4667	0.0247906	0.0246681	0.000251053	3	8.69102e-06	6.19299e-09
2	1	0	0	0	42.5667	0.0297907	0.0296941	0.000343048	3	8.72085e-06	1.01865e-08
2	1	0	0	0	42.6667	0.0347909	0.0347456	0.000454303	3	8.76092e-06	1.5785e-08
2	1	0	0	0	42.7667	0.0397911	0.0396922	0.000587569	3	8.81317e-06	2.33219e-08
2	1	0	0	0	42.8667	0.0447912	0.0446663	0.00073545	3	8.87939e-06	3.28498e-08
2	1	0	0	0	42.9667	0.0497914	0.0496616	0.000896925	3	8.96117e-06	4.45427e-08
2	1	0	0	0	43.0667	0.0547916	0.0547268	0.00106839	3	9.05982e-06	5.84694e-08
2	1	0	0	0	43.1667	0.0597918	0.0597052	0.00123887	3	9.17554e-06	7.39669e-08
2	1	0	0	0	43.2667	0.0647919	0.0647281	0.00140108	3	9.30793e-06	9.06895e-08
2	1	0	0	0	43.3667	0.0697921	0.0696576	0.00154465	3	9.45567e-06	1.07596e-07
2	1	0	0	0	43.4667	0.0747922	0.0747229	0.00166282	3	9.61658e-06	1.24251e-07
2	1	0	0	0	43.5667	0.0797924	0.0797076	0.0017513	3	9.78795e-06	1.39592e-07
2	1	0	0	0	43.6667	0.0847926	0.0846828	0.00181038	3	9.96659e-06	1.53308e-07
2	1	0	0	0	43.7667	0.0897928	0.0897162	0.00183678	3	1.01494e-05	1.64789e-07
2	1	0	0	0	43.8667	0.0947929	0.0947179	0.00183672	3	1.03335e-05	1.7397e-07
2	1	0	0	0	43.9667	0.0997931	0.0997079	0.00181587	3	1.05165e-05	1.81057e-07
2	1	0	0	0	44.0667	0.104793	0.104683	0.00177742	3	1.06967e-05	1.86066e-07
2	1	0	0	0	44.1667	0.109793	0.109692	0.00173192	3	1.08725e-05	1.89978e-07
2	1	0	0	0	44.2667	0.114794	0.114661	0.00168078	3	1.10434e-05	1.92719e-07
2	1	0	0	0	44.3667	0.119794	0.119736	0.0016238	3	1.12088e-05	1.94427e-07
2	1	0	0	0	44.4667	0.124794	0.124656	0.00156845	3	1.13687e-05	1.95517e-07
2	1	0	0	0	44.5667	0.129794	0.129694	0.00151392	3	1.15231e-05	1.96346e-07
2	1	0	0	0	44.6667	0.134794	0.134698	0.00146312	3	1.16721e-05	1.9708e-07
2	1	0	0	0	44.7667	0.139794	0.139632	0.00141576	3	1.18163e-05	1.97686e-07
2	1	0	0	0	44.8667	0.144795	0.144736	0.00137138	3	1.19557e-05	1.98488e-07
2	1	0	0	0	44.9667	0.149795	0.149666	0.00132819	3	1.20909e-05	1.98785e-07
2	1	0	0	0	45.0667	0.154795	0.154705	0.00128987	3	1.22221e-05	1.99549e-07
2	1	0	0	0	45.1667	0.159795	0.159638	0.00125485	3	1.23496e-05	2.00322e-07
2	1	0	0	0	45.2667	0.164795	0.164663	0.00122179	3	1.24737e-05	2.01183e-07
2	1	0	0	0	45.3667	0.169795	0.169708	0.00119216	3	1.25947e-05	2.02319e-07
2	1	0	0	0	45.4667	0.174796	0.174713	0.00116516	3	1.27128e-05	2.03568e-07
2	1	0	0	0	45.5667	0.179796	0.179671	0.00114022	3	1.28282e-05	2.04864e-07
2	1	0	0	0	45.6667	0.184796	0.184651	0.00111533	3	1.29411e-05	2.05948e-07
2	1	0	0	0	45.7667	0.189796	0.189617	0.00109237	3	1.30517e-05	2.07131e-07
2	1	0	0	0	45.8667	0.194796	0.194667	0.00107184	3	1.31602e-05	2.08653e-07
2	1	0	1	0	45.9669	0.199796	0.199659	0.0010525	3	1.32668e-05	2.10141e-07
2	1	0	1	0	46.0669	0.204797	0.204682	0.00103568	3	1.33715e-05	2.11985e-07
2	1	0	1	0	46.1669	0.209797	0.209691	0.00101952	3	1.34745e-05	2.13783e-07
2	1	0	1	0	46.2669	0.214797	0.214694	0.00100394	3	1.35759e-05	2.1554e-07
2	1	0	1	0	46.3669	0.219797	0.219645	0.000990014	3	1.36758e-05	2.17452e-07
2	1	0	1	0	46.4669	0.224797	0.224696	0.000976587	3	1.37743e-05	2.19435e-07
2	1	0	1	0	46.5669	0.229797	0.229628	0.000962658	3	1.38715e-05	2.21053e-07
2	1	0	1	0	46.6669	0.234798	0.234648	0.000950994	3	1.39674e-05	2.23149e-07
2	1	0	1	0	46.7669	0.239798	0.239702	0.00093956	3	1.40622e-05	2.25214e-07
2	1	0	1	0	46.8669	0.244798	0.244694	0.00092858	3	1.41557e-05	2.27218e-07
2	1	0	1	0	46.9669	0.249798	0.249647	0.000917067	3	1.42482e-05	2.28943e-07
2	1	0	1	0	47.0669	0.254798	0.254629	0.000907574	3	1.43397e-05	2.31095e-07
2	1	0	1	0	47.1669	0.259798	0.259681	0.000899248	3	1.44302e-05	2.33517e-07
2	1	0	1	0	47.2669	0.264799	0.264651	0.000890214	3	1.45199e-05	2.35596e-07
2	1	0	1	0	47.3669	0.269799	0.269703	0.000883039	3	1.46088e-05	2.38158e-07
2	1	0	1	0	47.4669	0.274799	0.274698	0.000876514	3	1.4697e-05	2.40777e-07
2	1	0	1	0	47.5669	0.279799	0.27973	0.00087133	3	1.47845e-05	2.43737e-07
2	1	0	1	0	47.6669	0.284799	0.284665	0.000866294	3	1.48716e-05	2.46603e-07
2	1	0	1	0	47.7669	0.289799	0.289645	0.000861413	3	1.49582e-05	2.49504e-07
2	1	0	1	0	47.8669	0.2948	0.2947	0.000858142	3	1.50444e-05	2.52894e-07
2	1	0	1	0	47.9659	0.29975	0.299601	0.000855584	3	1.51294e-05	2.56334e-07
2	0	0	1	0	48.0463	0.29625	0.296062	0.00071866	3	1.51891e-05	2.12768e-07
2	0	0	1	0	48.1463	0.291249	0.291137	0.000687162	3	1.5259e-05	2.00058e-07
2	0	0	1	0	48.2463	0.286249	0.28606	0.000663879	3	1.53264e-05	1.89909e-07
2	0	0	1	0	48.3463	0.281249	0.281095	0.000647746	3	1.53918e-05	1.82078e-07
2	0	0	1	0	48.4463	0.276249	0.276078	0.000632062	3	1.54556e-05	1.74498e-07
2	0	0	1	0	48.5463	0.271249	0.271088	0.000617267	3	1.55178e-05	1.67333e-07
2	0	0	1	0	48.6463	0.266249	0.266074	0.000604992	3	1.55788e-05	1.60973e-07
2	0	0	1	0	48.7463	0.261248	0.261071	0.000593931	3	1.56385e-05	1.55058e-07
2	0	0	1	0	48.8463	0.256248	0.256159	0.000583905	3	1.56972e-05	1.49573e-07
2	0	0	1	0	48.9463	0.251248	0.251051	0.000573279	3	1.57548e-05	1.43922e-07
2	0	0	1	0	49.0463	0.246248	0.246067	0.000563198	3	1.58115e-05	1.38584e-07
2	0	0	1	0	49.1463	0.241248	0.241073	0.000556053	3	1.58672e-05	1.34049e-07
2	0	0	1	0	49.2463	0.236248	0.236102	0.000547593	3	1.59221e-05	1.29288e-07
2	0	0	1	0	49.3463	0.231247	0.23108	0.000538207	3	1.59761e-05	1.24369e-07
2	0	0	1	0	49.4463	0.226247	0.226081	0.000529954	3	1.60293e-05	1.19813e-07
2	0	0	1	0	49.5463	0.221247	0.221078	0.000521013	3	1.60817e-05	1.15185e-07
2	0	0	1	0	49.6463	0.216247	0.2161	0.000515047	3	1.61333e-05	1.11302e-07
2	0	0	1	0	49.7463	0.211247	0.211137	0.000504937	3	1.61841e-05	1.06611e-07
2	0	0	1	0	49.8463	0.206247	0.206106	0.000497649	3	1.62342e-05	1.02568e-07
2	0	0	1	0	49.9463	0.201246	0.201083	0.000491556	3	1.62834e-05	9.88438e-08
2	0	0	0	0	50.0465	0.196246	0.19605	0.000483383	3	1.63321e-05	9.47672e-08
2	0	0	0	0	50.1465	0.191246	0.191081	0.000474412	3	1.63798e-05	9.06511e-08
2	0	0	0	0	50.2465	0.186246	0.186082	0.000467244	3	1.64268e-05	8.69454e-08
2	0	0	0	0	50.3465	0.181246	0.181072	0.000459994	3	1.6473e-05	8.32923e-08
2	0	0	0	0	50.4465	0.176246	0.176049	0.000452132	3	1.65184e-05	7.95972e-08
2	0	0	0	0	50.5465	0.171245	0.171177	0.000443175	3	1.6563e-05	7.58614e-08
2	0	0	0	0	50.6465	0.166245	0.166098	0.000434014	3	1.66068e-05	7.2089e-08
2	0	0	0	0	50.7465	0.161245	0.161085	0.000426286	3	1.66497e-05	6.86683e-08
2	0	0	0	0	50.8465	0.156245	0.156132	0.00041752	3	1.66917e-05	6.51882e-08
2	0	0	0	0	50.9465	0.151245	0.151047	0.000406451	3	1.67327e-05	6.13931e-08
2	0	0	0	0	51.0465	0.146245	0.146083	0.000395703	3	1.67728e-05	5.78055e-08
2	0	0	0	0	51.1465	0.141244	0.141067	0.000385426	3	1.68118e-05	5.43707e-08
2	0	0	0	0	51.2465	0.136244	0.13613	0.000373399	3	1.68495e-05	5.08306e-08
2	0	0	0	0	51.3465	0.131244	0.131095	0.000358711	3	1.68859e-05	4.70252e-08
2	0	0	0	0	51.4465	0.126244	0.126019	0.000342264	3	1.69209e-05	4.31318e-08
2	0	0	0	0	51.5465	0.121244	0.121093	0.000325047	3	1.69541e-05	3.93608e-08
2	0	0	0	0	51.6465	0.116244	0.116106	0.000302239	3	1.69852e-05	3.50918e-08
2	0	0	0	0	51.7465	0.111243	0.111093	0.000276164	3	1.7014e-05	3.06797e-08
2	0	0	0	0	51.8465	0.106243	0.106091	0.000244252	3	1.70399e-05	2.59129e-08
2	0	0	0	0	51.9465	0.101243	0.101124	0.000206313	3	1.70623e-05	2.08633e-08
2	0	0	0	0	52.0465	0.096243	0.0961173	0.000158924	3	1.70805e-05	1.52754e-08
2	0	0	0	0	52.1465	0.0912428	0.0911517	0.000101585	3	1.70935e-05	9.25969e-09
2	0	0	0	0	52.2465	0.0862426	0.0860843	3.3143e-05	3	1.71001e-05	2.85309e-09
2	0	0	0	0	52.3465	0.0812425	0.0811526	-5.39015e-05	3	1.70989e-05	-4.37425e-09
2	0	0	0	0	52.4465	0.0762423	0.0761382	-0.000156974	3	1.70883e-05	-1.19517e-08
2	0	0	0	0	52.5465	0.0712421	0.0710771	-0.000280913	3	1.70663e-05	-1.99665e-08
2	0	0	0	0	52.6465	0.0662419	0.0661423	-0.000423103	3	1.70311e-05	-2.7985e-08
2	0	0	0	0	52.7465	0.0612418	0.061113	-0.000584193	3	1.69807e-05	-3.57018e-08
2	0	0	0	0	52.8465	0.0562416	0.0561379	-0.000757699	3	1.69134e-05	-4.25356e-08
2	0	0	0	0	52.9465	0.0512415	0.0511129	-0.000938209	3	1.68284e-05	-4.79546e-08
2	0	0	0	0	53.0465	0.0462413	0.0461038	-0.00111958	3	1.67251e-05	-5.16168e-08
2	0	0	0	0	53.1465	0.0412411	0.0410767	-0.00128304	3	1.66046e-05	-5.27031e-08
2	0	0	0	0	53.2465	0.036241	0.0361503	-0.0014205	3	1.6469e-05	-5.13516e-08
2	0	0	0	0	53.3465	0.0312408	0.0311253	-0.00152425	3	1.63213e-05	-4.74428e-08
2	0	0	0	0	53.4465	0.0262406	0.0261014	-0.00158713	3	1.61653e-05	-4.14262e-08
2	0	0	0	0	53.5465	0.0212405	0.0211008	-0.00161075	3	1.60049e-05	-3.3988e-08
2	0	0	0	0	53.6465	0.0162403	0.0161182	-0.00159896	3	1.58439e-05	-2.57724e-08
2	0	0	0	0	53.7465	0.0112401	0.0111292	-0.00156339	3	1.56854e-05	-1.73993e-08
2	0	0	0	0	53.8465	0.00623996	0.00613605	-0.00150551	3	1.55318e-05	-9.23787e-09
2	0	0	0	0	53.9465	0.0012398	0.00110152	-0.00143813	3	1.53844e-05	-1.58413e-09
2	0	0	0	0	54.0465	-0.00376037	-0.0039468	-0.00136666	3	1.52439e-05	5.39394e-09
2	0	0	0	0	54.1465	-0.00876054	-0.00894847	-0.001296	3	1.51107e-05	1.15973e-08
2	0	0	0	0	54.2465	-0.0137607	-0.0139067	-0.00122675	3	1.49846e-05	1.706e-08
2	0	0	0	0	54.3465	-0.0187609	-0.0189073	-0.00116023	3	1.48651e-05	2.19367e-08
2	0	0	0	0	54.4465	-0.023761	-0.0239058	-0.00109989	3	1.47519e-05	2.62938e-08
2	0	0	0	0	54.5465	-0.0287612	-0.0289467	-0.0010465	3	1.46443e-05	3.02928e-08
2	0	0	0	0	54.6465	-0.0337614	-0.0339229	-0.000997694	3	1.45419e-05	3.38447e-08
2	0	0	0	0	54.7465	-0.0387616	-0.0389044	-0.000954294	3	1.44442e-05	3.71262e-08
2	0	0	0	0	54.8465	-0.0437617	-0.0438923	-0.000912686	3	1.43506e-05	4.00599e-08
2	0	0	0	0	54.9465	-0.0487619	-0.048913	-0.000877635	3	1.42609e-05	4.29278e-08
2	0	0	0	0	55.0465	-0.0537621	-0.053885	-0.000846528	3	1.41746e-05	4.56152e-08
2	0	0	0	0	55.1465	-0.0587622	-0.058944	-0.000815605	3	1.40914e-05	4.8075e-08
2	0	0	0	0	55.2465	-0.0637624	-0.0638905	-0.000785723	3	1.40111e-05	5.02002e-08
2	0	0	0	0	55.3465	-0.0687626	-0.0689356	-0.000763781	3	1.39335e-05	5.26517e-08
2	0	0	0	0	55.4465	-0.0737627	-0.0739384	-0.00073938	3	1.38582e-05	5.46685e-08
2	0	0	0	0	55.5465	-0.0787629	-0.0789453	-0.000717083	3	1.37852e-05	5.66103e-08
2	0	0	0	0	55.6465	-0.0837631	-0.0839343	-0.000696771	3	1.37143e-05	5.84829e-08
2	0	0	0	0	55.7465	-0.0887632	-0.0889561	-0.000679494	3	1.36453e-05	6.04451e-08
2	0	0	0	0	55.8465	-0.0937634	-0.0939429	-0.000661722	3	1.3578e-05	6.21641e-08
2	0	0	0	0	55.9466	-0.0987614	-0.098875	-0.000645014	3	1.35124e-05	6.37758e-08
2	0	0	1	0	56.0467	-0.103764	-0.103917	-0.000631121	3	1.34483e-05	6.55839e-08
2	0	0	1	0	56.1467	-0.108764	-0.108907	-0.000617477	3	1.33857e-05	6.72473e-08
2	0	0	1	0	56.2467	-0.113764	-0.113933	-0.000605561	3	1.33244e-05	6.89932e-08
2	0	0	1	0	56.3467	-0.118764	-0.118928	-0.000591895	3	1.32644e-05	7.03928e-08
2	0	0	1	0	56.4467	-0.123764	-0.123908	-0.000579931	3	1.32055e-05	7.18583e-08
2	0	0	1	0	56.5467	-0.128765	-0.128934	-0.000570087	3	1.31479e-05	7.35038e-08
2	0	0	1	0	56.6467	-0.133765	-0.133879	-0.00055919	3	1.30912e-05	7.48637e-08
2	0	0	1	0	56.7467	-0.138765	-0.138871	-0.000548512	3	1.30356e-05	7.61724e-08
2	0	0	1	0	56.8467	-0.143765	-0.143937	-0.000537991	3	1.2981e-05	7.7437e-08
2	0	0	1	0	56.9467	-0.148765	-0.148862	-0.000529182	3	1.29274e-05	7.87749e-08
2	0	0	1	0	57.0467	-0.153765	-0.153856	-0.000519794	3	1.28746e-05	7.99733e-08
2	0	0	1	0	57.1467	-0.158766	-0.158914	-0.000512359	3	1.28227e-05	8.14209e-08
2	0	0	1	0	57.2467	-0.163766	-0.163887	-0.000504612	3	1.27715e-05	8.26992e-08
2	0	0	1	0	57.3467	-0.168766	-0.168919	-0.000499254	3	1.27211e-05	8.43336e-08
2	0	0	1	0	57.4467	-0.173766	-0.173909	-0.000491021	3	1.26715e-05	8.53931e-08
2	0	0	1	0	57.5467	-0.178766	-0.178936	-0.000484602	3	1.26224e-05	8.67129e-08
2	0	0	1	0	57.6467	-0.183766	-0.18389	-0.000479875	3	1.2574e-05	8.82443e-08
2	0	0	1	0	57.7467	-0.188767	-0.188872	-0.000474233	3	1.25261e-05	8.95692e-08
2	0	0	1	0	57.8467	-0.193767	-0.193887	-0.000468254	3	1.24787e-05	9.07884e-08
2	0	0	1	0	57.9467	-0.198767	-0.198878	-0.000465126	3	1.24318e-05	9.25034e-08
2	1	0	1	1	58.0371	-0.196717	-0.196769	-0.000332649	3	1.23977e-05	6.5455e-08
2	1	0	1	1	58.1371	-0.191717	-0.191843	-0.000310186	3	1.23659e-05	5.95071e-08
2	1	0	1	1	58.2371	-0.186717	-0.186834	-0.0002934	3	1.23361e-05	5.48172e-08
2	1	0	1	1	58.3371	-0.181716	-0.181802	-0.000278686	3	1.23076e-05	5.06656e-08
2	1	0	1	1	58.4371	-0.176716	-0.176828	-0.000269446	3	1.22804e-05	4.76455e-08
2	1	0	1	1	58.5371	-0.171716	-0.171845	-0.000259605	3	1.22542e-05	4.46119e-08
2	1	0	1	1	58.6371	-0.166716	-0.166819	-0.000249445	3	1.22291e-05	4.16122e-08
2	1	0	1	1	58.7371	-0.161716	-0.161798	-0.000241521	3	1.22048e-05	3.90777e-08
2	1	0	1	1	58.8371	-0.156716	-0.156862	-0.000232486	3	1.21813e-05	3.64683e-08
2	1	0	1	1	58.9371	-0.151715	-0.151761	-0.000226372	3	1.21586e-05	3.43545e-08
2	1	0	1	1	59.0371	-0.146715	-0.146806	-0.000218772	3	1.21367e-05	3.2117e-08
2	1	0	1	1	59.1371	-0.141715	-0.141839	-0.000211521	3	1.21154e-05	3.00019e-08
2	1	0	1	1	59.2371	-0.136715	-0.136772	-0.000204741	3	1.20949e-05	2.80028e-08
2	1	0	1	1	59.3371	-0.131715	-0.131731	-0.000199857	3	1.20749e-05	2.63274e-08
2	1	0	1	1	59.4371	-0.126715	-0.12688	-0.000193918	3	1.20556e-05	2.46044e-08
2	1	0	1	1	59.5371	-0.121714	-0.121809	-0.000186826	3	1.20369e-05	2.27572e-08
2	1	0	1	1	59.6371	-0.116714	-0.116806	-0.000182543	3	1.20187e-05	2.1322e-08
2	1	0	1	1	59.7371	-0.111714	-0.111845	-0.000176292	3	1.20011e-05	1.97174e-08
2	1	0	1	1	59.8371	-0.106714	-0.106823	-0.000172734	3	1.1984e-05	1.8452e-08
2	1	0	1	1	59.9371	-0.101714	-0.101804	-0.000164289	3	1.19673e-05	1.67252e-08
2	1	0	0	1	60.0373	-0.0967135	-0.096872	-0.000163293	3	1.19511e-05	1.58185e-08
2	1	0	0	1	60.1373	-0.0917133	-0.0917983	-0.000157856	3	1.19354e-05	1.44909e-08
2	1	0	0	1	60.2373	-0.0867132	-0.0868899	-0.000152662	3	1.19201e-05	1.32648e-08
2	1	0	0	1	60.3373	-0.081713	-0.0818289	-0.000148351	3	1.19052e-05	1.21394e-08
2	1	0	0	1	60.4373	-0.0767128	-0.0768516	-0.00014559	3	1.18908e-05	1.11888e-08
2	1	0	0	1	60.5373	-0.0717127	-0.0718319	-0.000140594	3	1.18768e-05	1.00992e-08
2	1	0	0	1	60.6373	-0.0667125	-0.0668652	-0.000137072	3	1.18632e-05	9.16537e-09
2	1	0	0	1	60.7358	-0.0617873	-0.061907	-0.000131786	3	1.18502e-05	8.1585e-09
2	1	0	0	1	60.7396	-0.0615873	-0.0616557	-0.000122341	3	1.18497e-05	7.54299e-09