File: AutoAnalysis Examples/EC/C003B-5ppb-A_C01.mpt
EC-Lab ASCII FILE
Nb header lines : 59

Cyclic Voltammetry

Run on channel : 1 (SN 22398)
User :
CE vs. WE compliance from -10 V to 10 V
Electrode connection : standard
Ewe ctrl range : min = -1.00 V, max = 1.00 V
Safety Limits :
	Ewe min = -2.00 V
	Ewe max = 2.00 V
	|I| = 50.000 mA
	for t > 10 ms
Acquisition started on : 11/21/2018 10:17:03
Technique started on : 11/21/2018 10:17:03
Saved on :
	File : C003B-5ppb-A_C01.mpr
	Directory : \\ECCOMPUTER\Users\Lab User\Google Drive\Electrochemical Data\EC-Lab\Data\FREDsense\Tim\2018.11.21 - EC comparison to High Throughput\
	Host : 172.16.1.30
Device : SP-50 (SN 0301030103010301)
Address : USB
EC-Lab for windows v11.02 (software)
Internet server v11.02 (firmware)
Command interpretor v11.02 (firmware)
Electrode material : Au/Pd
Initial state :
Electrolyte : NaCl (0.2M)
Comments : Fe(CN)63-/Fe(CN)64- 5.10-3 M
Reference electrode : SCE Saturated Calomel Electrode (0.241 V)
Electrode surface area : 0.001 cm²
Characteristic mass : 0.001 g
Equivalent Weight : 0.000 g/eq.
Density : 0.000 g/cm3
Cycle Definition : Charge/Discharge alternance
Ei (V)              -0.100
vs.                 Ref
dE/dt               50.000
dE/dt unit          mV/s
E1 (V)              0.300
vs.                 Ref
Step percent        50
N                   10
E range min (V)     -1.000
E range max (V)     1.000
I Range             Auto
I Range min         Unset
I Range max         Unset
I Range init        Unset
Bandwidth           5
E2 (V)              -0.200
vs.                 Ref
nc cycles           2
Reverse Scan        1
Ef (V)              0.000
vs.                 Eoc

mode	ox/red	error	control changes	counter inc.	time/s	control/V	Ewe/V	<I>/mA	cycle number	(Q-Qo)/C	P/W
2	1	0	0	0	0.000000000000000E+000	-0.0985165	-0.0986027	-0.000111206	1	0.0000000E+000	1.09653e-08
2	1	0	0	0	0.1112	-0.0929664	-0.0930311	-4.20822e-06	1	9.14437e-10	3.91495e-10
2	1	0	1	0	0.2267	-0.0871912	-0.0872159	3.42893e-05	1	5.62515e-09	-2.99058e-09
2	1	0	1	0	0.3267	-0.0821911	-0.0822927	4.11536e-05	1	9.88585e-09	-3.38664e-09
2	1	0	1	0	0.4267	-0.0771909	-0.0772284	4.53452e-05	1	1.46738e-08	-3.50194e-09
2	1	0	1	0	0.5267	-0.0721908	-0.0722607	4.90917e-05	1	1.98202e-08	-3.5474e-09
2	1	0	1	0	0.6267	-0.0671906	-0.0672453	5.12679e-05	1	2.52478e-08	-3.44753e-09
2	1	0	1	0	0.7267	-0.0621905	-0.0622892	5.54313e-05	1	3.09636e-08	-3.45277e-09
2	1	0	1	0	0.8267	-0.0571903	-0.0572313	5.60761e-05	1	3.68915e-08	-3.20931e-09
2	1	0	1	0	0.9267	-0.0521902	-0.0522869	6.19811e-05	1	4.30496e-08	-3.2408e-09
2	1	0	1	0	1.0267	-0.04719	-0.0472386	6.18628e-05	1	4.94363e-08	-2.92231e-09
2	1	0	1	0	1.1267	-0.0421899	-0.0422772	6.30781e-05	1	5.60262e-08	-2.66676e-09
2	1	0	1	0	1.2267	-0.0371897	-0.0372342	6.48604e-05	1	6.28795e-08	-2.41502e-09
2	1	0	1	0	1.3267	-0.0321896	-0.0322399	6.91651e-05	1	6.99862e-08	-2.22988e-09
2	1	0	1	0	1.4267	-0.0271894	-0.0272573	7.08873e-05	1	7.73983e-08	-1.9322e-09
2	1	0	1	0	1.5267	-0.0221893	-0.0222419	7.53563e-05	1	8.5178e-08	-1.67607e-09
2	1	0	1	0	1.6267	-0.0171891	-0.0172551	8.00461e-05	1	9.34356e-08	-1.3812e-09
2	1	0	1	0	1.7267	-0.012189	-0.0122651	8.76115e-05	1	1.02242e-07	-1.07456e-09
2	1	0	1	0	1.8267	-0.00718885	-0.00721568	9.6334e-05	1	1.11758e-07	-6.95116e-10
2	1	0	1	0	1.9267	-0.0021887	-0.00228611	0.000105714	1	1.22203e-07	-2.41672e-10
2	1	0	1	0	2.0267	0.00281145	0.00278977	0.000118898	1	1.33938e-07	3.31698e-10
2	1	0	1	0	2.1267	0.0078116	0.00772783	0.000139104	1	1.47239e-07	1.07497e-09
2	1	0	1	0	2.2267	0.0128117	0.0127952	0.00016297	1	1.62655e-07	2.08523e-09
2	1	0	1	0	2.3267	0.0178119	0.0177492	0.000194938	1	1.80864e-07	3.45999e-09
2	1	0	1	0	2.4267	0.022812	0.0227668	0.000235673	1	2.02668e-07	5.3655e-09
2	1	0	1	0	2.5267	0.0278122	0.0277801	0.000286683	1	2.2912e-07	7.96407e-09
2	1	0	1	0	2.6267	0.0328123	0.0327531	0.000352578	1	2.61361e-07	1.1548e-08
2	1	0	1	0	2.7267	0.0378125	0.0377739	0.000427991	1	3.00702e-07	1.61669e-08
2	1	0	1	0	2.8267	0.0428126	0.0427565	0.000519684	1	3.48471e-07	2.22199e-08
2	1	0	1	0	2.9267	0.0478128	0.0477337	0.000620524	1	4.05881e-07	2.96199e-08
2	1	0	1	0	3.0267	0.0528129	0.0528128	0.000731989	1	4.73991e-07	3.86584e-08
2	1	0	1	0	3.1267	0.0578131	0.0577699	0.000842709	1	5.53181e-07	4.86832e-08
2	1	0	1	0	3.2267	0.0628132	0.0627462	0.0009511	1	6.43354e-07	5.96779e-08
2	1	0	1	0	3.3267	0.0678134	0.0677881	0.00104696	1	7.43796e-07	7.09711e-08
2	1	0	1	0	3.4267	0.0728135	0.0727463	0.00112511	1	8.53022e-07	8.18474e-08
2	1	0	1	0	3.5267	0.0778136	0.0777649	0.00118585	1	9.69193e-07	9.22175e-08
2	1	0	1	0	3.6267	0.0828138	0.0827963	0.00122155	1	1.09012e-06	1.0114e-07
2	1	0	1	0	3.7267	0.0878139	0.0877587	0.00123816	1	1.21365e-06	1.0866e-07
2	1	0	1	0	3.8267	0.0928141	0.0927593	0.00123519	1	1.33787e-06	1.14576e-07
2	1	0	1	0	3.9267	0.0978142	0.0976942	0.00122004	1	1.46118e-06	1.19191e-07
2	1	0	1	0	4.0267	0.102814	0.102751	0.00119424	1	1.58237e-06	1.22709e-07
2	1	0	1	0	4.1267	0.107815	0.107743	0.00116357	1	1.70068e-06	1.25367e-07
2	1	0	1	0	4.2267	0.112815	0.112756	0.00112814	1	1.81566e-06	1.27205e-07
2	1	0	1	0	4.3267	0.117815	0.11778	0.0010929	1	1.92712e-06	1.28722e-07
2	1	0	1	0	4.4267	0.122815	0.122743	0.00105782	1	2.03506e-06	1.2984e-07
2	1	0	1	0	4.5267	0.127815	0.127757	0.00102415	1	2.13959e-06	1.30843e-07
2	1	0	1	0	4.6267	0.132815	0.132772	0.000991953	1	2.24088e-06	1.31703e-07
2	1	0	1	0	4.7267	0.137815	0.137744	0.000965524	1	2.33917e-06	1.32995e-07
2	1	0	1	0	4.8267	0.142816	0.142762	0.000938359	1	2.43474e-06	1.33962e-07
2	1	0	1	0	4.9267	0.147816	0.147717	0.000915173	1	2.52775e-06	1.35187e-07
2	1	0	1	0	5.0267	0.152816	0.152752	0.000894664	1	2.61848e-06	1.36661e-07
2	1	0	1	0	5.1267	0.157816	0.157777	0.000872835	1	2.70714e-06	1.37713e-07
2	1	0	1	0	5.2267	0.162816	0.162738	0.00085492	1	2.79389e-06	1.39128e-07
2	1	0	1	0	5.3267	0.167816	0.167692	0.000839232	1	2.87893e-06	1.40733e-07
2	1	0	1	0	5.4267	0.172816	0.172763	0.000824321	1	2.96239e-06	1.42412e-07
2	1	0	1	0	5.5267	0.177817	0.17777	0.000808647	1	3.04442e-06	1.43753e-07
2	1	0	1	0	5.6267	0.182817	0.182735	0.000796498	1	3.12517e-06	1.45548e-07
2	1	0	1	0	5.7267	0.187817	0.187743	0.000785144	1	3.20474e-06	1.47405e-07
2	1	0	1	0	5.8267	0.192817	0.192733	0.000776324	1	3.28324e-06	1.49624e-07
2	1	0	1	0	5.9267	0.197817	0.197771	0.000766964	1	3.36076e-06	1.51683e-07
2	1	0	1	0	6.0267	0.202817	0.202783	0.000758702	1	3.43742e-06	1.53852e-07
2	1	0	1	0	6.1267	0.207817	0.207786	0.000750533	1	3.51331e-06	1.5595e-07
2	1	0	1	0	6.2267	0.212818	0.212751	0.000743174	1	3.58848e-06	1.58111e-07
2	1	0	1	0	6.3267	0.217818	0.217719	0.00073853	1	3.66301e-06	1.60792e-07
2	1	0	1	0	6.4267	0.222818	0.222709	0.000732408	1	3.73696e-06	1.63114e-07
2	1	0	1	0	6.5267	0.227818	0.227764	0.000728297	1	3.81038e-06	1.6588e-07
2	1	0	1	0	6.6267	0.232818	0.232771	0.000723579	1	3.88337e-06	1.68428e-07
2	1	0	1	0	6.7267	0.237818	0.237779	0.000719135	1	3.95593e-06	1.70995e-07
2	1	0	0	0	6.8269	0.242818	0.242727	0.000715982	1	4.02825e-06	1.73788e-07
2	1	0	0	0	6.9269	0.247819	0.24773	0.000712705	1	4.10012e-06	1.76559e-07
2	1	0	0	0	7.0269	0.252819	0.252784	0.000711812	1	4.1717e-06	1.79935e-07
2	1	0	0	0	7.1269	0.257819	0.257743	0.000708417	1	4.24311e-06	1.8259e-07
2	1	0	0	0	7.2269	0.262819	0.262765	0.000707337	1	4.31428e-06	1.85864e-07
2	1	0	0	0	7.3269	0.267819	0.267754	0.00070733	1	4.38532e-06	1.89391e-07
2	1	0	0	0	7.4269	0.272819	0.272732	0.000706122	1	4.45627e-06	1.92582e-07
2	1	0	0	0	7.5269	0.27782	0.277789	0.000707961	1	4.52742e-06	1.96664e-07
2	1	0	0	0	7.6269	0.28282	0.282725	0.000706359	1	4.59866e-06	1.99705e-07
2	1	0	0	0	7.7269	0.28782	0.287721	0.000704161	1	4.66959e-06	2.02602e-07
2	1	0	0	0	7.8269	0.29282	0.292733	0.000701867	1	4.74034e-06	2.05459e-07
2	1	0	0	0	7.9269	0.29782	0.297723	0.000702845	1	4.81115e-06	2.09253e-07
2	0	0	1	0	8.0163	0.29772	0.297601	0.000577612	1	4.86924e-06	1.71898e-07
2	0	0	1	0	8.1163	0.29272	0.292596	0.000532152	1	4.92431e-06	1.55705e-07
2	0	0	1	0	8.2163	0.28772	0.287594	0.000500174	1	4.97561e-06	1.43847e-07
2	0	0	1	0	8.3163	0.28272	0.282562	0.000475325	1	5.02412e-06	1.34309e-07
2	0	0	1	0	8.4163	0.27772	0.277595	0.000455944	1	5.07041e-06	1.26568e-07
2	0	0	1	0	8.5163	0.272719	0.27263	0.000439859	1	5.11487e-06	1.19919e-07
2	0	0	1	0	8.6163	0.267719	0.267634	0.000423554	1	5.15777e-06	1.13357e-07
2	0	0	1	0	8.7163	0.262719	0.262601	0.000412077	1	5.19934e-06	1.08212e-07
2	0	0	1	0	8.8163	0.257719	0.257616	0.000400113	1	5.23968e-06	1.03076e-07
2	0	0	1	0	8.9163	0.252719	0.252597	0.000390031	1	5.27892e-06	9.85208e-08
2	0	0	1	0	9.0163	0.247719	0.247622	0.000380934	1	5.31723e-06	9.43277e-08
2	0	0	1	0	9.1163	0.242718	0.242626	0.000373291	1	5.35464e-06	9.057e-08
2	0	0	0	0	9.2165	0.237718	0.237584	0.000364174	1	5.39127e-06	8.6522e-08
2	0	0	0	0	9.3165	0.232718	0.232577	0.000357478	1	5.42702e-06	8.31412e-08
2	0	0	0	0	9.4165	0.227718	0.227581	0.000348787	1	5.46203e-06	7.93773e-08
2	0	0	0	0	9.5165	0.222718	0.222614	0.000342073	1	5.49634e-06	7.61503e-08
2	0	0	0	0	9.6165	0.217718	0.217627	0.000335324	1	5.52997e-06	7.29756e-08
2	0	0	0	0	9.7165	0.212718	0.212595	0.00032909	1	5.56295e-06	6.99629e-08
2	0	0	0	0	9.8165	0.207717	0.207642	0.00032297	1	5.59531e-06	6.7062e-08
2	0	0	0	0	9.9165	0.202717	0.202591	0.00031772	1	5.62708e-06	6.43673e-08
2	0	0	0	0	10.0165	0.197717	0.197582	0.00031111	1	5.65828e-06	6.14698e-08
2	0	0	0	0	10.1165	0.192717	0.192649	0.000306115	1	5.68892e-06	5.89725e-08
2	0	0	0	0	10.2165	0.187717	0.187638	0.000301439	1	5.71895e-06	5.65615e-08
2	0	0	0	0	10.3165	0.182717	0.18264	0.000296233	1	5.74843e-06	5.4104e-08
2	0	0	0	0	10.4165	0.177717	0.177581	0.000289698	1	5.77738e-06	5.14448e-08
2	0	0	0	0	10.5165	0.172716	0.172638	0.000284598	1	5.80579e-06	4.91323e-08
2	0	0	0	0	10.6165	0.167716	0.167615	0.000278649	1	5.83363e-06	4.67057e-08
2	0	0	0	0	10.7165	0.162716	0.162668	0.000271621	1	5.86084e-06	4.4184e-08
2	0	0	0	0	10.8165	0.157716	0.157616	0.000266131	1	5.88746e-06	4.19463e-08
2	0	0	0	0	10.9165	0.152716	0.152615	0.000256366	1	5.91344e-06	3.91253e-08
2	0	0	0	0	11.0165	0.147716	0.147608	0.000251397	1	5.93872e-06	3.71082e-08
2	0	0	0	0	11.1165	0.142716	0.142576	0.000244538	1	5.96331e-06	3.48652e-08
2	0	0	0	0	11.2165	0.137715	0.137686	0.000237409	1	5.98712e-06	3.2688e-08
2	0	0	0	0	11.3165	0.132715	0.132596	0.000227277	1	6.01008e-06	3.01359e-08
2	0	0	0	0	11.4165	0.127715	0.127541	0.000217885	1	6.03207e-06	2.77893e-08
2	0	0	0	0	11.5165	0.122715	0.122598	0.000206471	1	6.05296e-06	2.53128e-08
2	0	0	0	0	11.6165	0.117715	0.117631	0.000192249	1	6.07257e-06	2.26145e-08
2	0	0	0	0	11.7165	0.112715	0.112604	0.000174887	1	6.09059e-06	1.9693e-08
2	0	0	0	0	11.8165	0.107715	0.107598	0.000155607	1	6.10701e-06	1.6743e-08
2	0	0	0	0	11.9165	0.102714	0.102577	0.000131713	1	6.12123e-06	1.35108e-08
2	0	0	0	0	12.0165	0.0977142	0.0975447	0.000104756	1	6.13282e-06	1.02184e-08
2	0	0	0	0	12.1165	0.0927141	0.0926056	6.60385e-05	1	6.14115e-06	6.11554e-09
2	0	0	0	0	12.2165	0.0877139	0.087657	2.52083e-05	1	6.14558e-06	2.20968e-09
2	0	0	0	0	12.3165	0.0827138	0.0826288	-2.7773e-05	1	6.14527e-06	-2.29485e-09
2	0	0	0	0	12.4165	0.0777136	0.0776239	-9.05471e-05	1	6.13918e-06	-7.02863e-09
2	0	0	0	0	12.5165	0.0727135	0.0726223	-0.000161945	1	6.12618e-06	-1.17608e-08
2	0	0	0	0	12.6165	0.0677134	0.0676111	-0.00025367	1	6.10509e-06	-1.71509e-08
2	0	0	0	0	12.7165	0.0627132	0.0626189	-0.000350829	1	6.07468e-06	-2.19686e-08
2	0	0	0	0	12.8165	0.0577131	0.0576417	-0.000455525	1	6.03406e-06	-2.62572e-08
2	0	0	0	0	12.9165	0.0527129	0.0526368	-0.000564787	1	5.98268e-06	-2.97286e-08
2	0	0	0	0	13.0165	0.0477128	0.0476002	-0.000672954	1	5.92044e-06	-3.20327e-08
2	0	0	0	0	13.1165	0.0427126	0.0426165	-0.000765699	1	5.84816e-06	-3.26314e-08
2	0	0	0	0	13.2165	0.0377125	0.0376509	-0.00084249	1	5.76719e-06	-3.17205e-08
2	0	0	0	0	13.3165	0.0327123	0.0326545	-0.000899648	1	5.67947e-06	-2.93776e-08
2	0	0	0	0	13.4165	0.0277122	0.0276327	-0.000931009	1	5.58741e-06	-2.57263e-08
2	0	0	0	0	13.5165	0.022712	0.0226756	-0.000939219	1	5.49337e-06	-2.12973e-08
2	0	0	0	0	13.6165	0.0177119	0.0176188	-0.000928522	1	5.39953e-06	-1.63594e-08
2	0	0	0	0	13.7165	0.0127117	0.0126118	-0.00090148	1	5.30764e-06	-1.13693e-08
2	0	0	0	0	13.8165	0.00771159	0.00760698	-0.000866126	1	5.21892e-06	-6.5886e-09
2	0	0	0	0	13.9165	0.00271145	0.00260213	-0.000823093	1	5.13413e-06	-2.14179e-09
2	0	0	0	0	14.0165	-0.0022887	-0.00244088	-0.00078183	1	5.05355e-06	1.90835e-09
2	0	0	0	0	14.1165	-0.00728885	-0.00743089	-0.000738392	1	4.97731e-06	5.48691e-09
2	0	0	0	0	14.2165	-0.012289	-0.0123499	-0.000697665	1	4.90525e-06	8.61607e-09
2	0	0	0	0	14.3165	-0.0172892	-0.0174597	-0.000659814	1	4.83707e-06	1.15201e-08
2	0	0	0	0	14.4165	-0.0222893	-0.0223808	-0.000625714	1	4.77248e-06	1.4004e-08
2	0	0	0	0	14.5165	-0.0272894	-0.0274121	-0.000595433	1	4.71116e-06	1.63221e-08
2	0	0	0	0	14.6165	-0.0322896	-0.0324339	-0.000567767	1	4.65276e-06	1.84149e-08
2	0	0	0	0	14.7165	-0.0372897	-0.0373868	-0.000542501	1	4.59701e-06	2.02824e-08
2	0	0	0	0	14.8165	-0.0422899	-0.0424193	-0.000519608	1	4.54359e-06	2.20414e-08
2	0	0	0	0	14.9165	-0.04729	-0.047352	-0.000499623	1	4.49232e-06	2.36582e-08
2	0	0	0	0	15.0165	-0.0522902	-0.052447	-0.000482966	1	4.44296e-06	2.53301e-08
2	0	0	0	0	15.1165	-0.0572903	-0.0574168	-0.000464869	1	4.3953e-06	2.66913e-08
2	0	0	0	0	15.2165	-0.0622905	-0.0624768	-0.000449466	1	4.34926e-06	2.80812e-08
2	0	0	0	0	15.3165	-0.0672906	-0.0674403	-0.000436851	1	4.30463e-06	2.94614e-08
2	0	0	0	0	15.4165	-0.0722908	-0.0724293	-0.000422925	1	4.26133e-06	3.06321e-08
2	0	0	0	0	15.5165	-0.0772909	-0.0773631	-0.0004126	1	4.21923e-06	3.192e-08
2	0	0	0	0	15.6165	-0.0822911	-0.0824008	-0.000400783	1	4.17823e-06	3.30248e-08
2	0	0	0	0	15.7165	-0.0872912	-0.0874173	-0.000390409	1	4.13825e-06	3.41285e-08
2	0	0	0	0	15.8165	-0.0922914	-0.0924264	-0.000383092	1	4.0992e-06	3.54078e-08
2	0	0	0	0	15.9165	-0.0972915	-0.0974132	-0.000375566	1	4.06105e-06	3.65851e-08
2	0	0	1	0	16.0167	-0.102292	-0.102413	-0.000366554	1	4.02363e-06	3.75398e-08
2	0	0	1	0	16.1167	-0.107292	-0.107395	-0.000359753	1	3.98705e-06	3.86358e-08
2	0	0	1	0	16.2167	-0.112292	-0.112359	-0.000352981	1	3.95116e-06	3.96605e-08
2	0	0	1	0	16.3167	-0.117292	-0.117441	-0.000346046	1	3.91593e-06	4.064e-08
2	0	0	1	0	16.4167	-0.122292	-0.122404	-0.000338595	1	3.88132e-06	4.14452e-08
2	0	0	1	0	16.5167	-0.127292	-0.127383	-0.000335617	1	3.84728e-06	4.27519e-08
2	0	0	1	0	16.6167	-0.132293	-0.132389	-0.000329449	1	3.81377e-06	4.36153e-08
2	0	0	1	0	16.7167	-0.137293	-0.137401	-0.00032469	1	3.78079e-06	4.46128e-08
2	0	0	1	0	16.8167	-0.142293	-0.142398	-0.000319271	1	3.74827e-06	4.54634e-08
2	0	0	1	0	16.9167	-0.147293	-0.147413	-0.000316199	1	3.7162e-06	4.66118e-08
2	0	0	1	0	17.0167	-0.152293	-0.152391	-0.000311334	1	3.68455e-06	4.74446e-08
2	0	0	1	0	17.1167	-0.157293	-0.157463	-0.000307724	1	3.65324e-06	4.84551e-08
2	0	0	1	0	17.2167	-0.162293	-0.16245	-0.00030391	1	3.62232e-06	4.93701e-08
2	0	0	1	0	17.3167	-0.167294	-0.167377	-0.000301987	1	3.5917e-06	5.05457e-08
2	0	0	1	0	17.4167	-0.172294	-0.172392	-0.000299238	1	3.56139e-06	5.15861e-08
2	0	0	1	0	17.5167	-0.177294	-0.177372	-0.00029567	1	3.53135e-06	5.24436e-08
2	0	0	1	0	17.6167	-0.182294	-0.182392	-0.000294409	1	3.50152e-06	5.36977e-08
2	0	0	1	0	17.7167	-0.187294	-0.187399	-0.000290853	1	3.47192e-06	5.45055e-08
2	0	0	1	0	17.8167	-0.192294	-0.192379	-0.000291604	1	3.4425e-06	5.60985e-08
2	0	0	1	0	17.9167	-0.197294	-0.197334	-0.000287419	1	3.41322e-06	5.67176e-08
2	1	0	0	1	17.9961	-0.198745	-0.198745	-0.000181358	1	3.39269e-06	3.6044e-08
2	1	0	0	1	18.0961	-0.193744	-0.193834	-0.000154194	1	3.37639e-06	2.9888e-08
2	1	0	0	1	18.1961	-0.188744	-0.18878	-0.00013845	1	3.36208e-06	2.61366e-08
2	1	0	0	1	18.2961	-0.183744	-0.183767	-0.000127023	1	3.3491e-06	2.33426e-08
2	1	0	0	1	18.3961	-0.178744	-0.178762	-0.000117107	1	3.33717e-06	2.09342e-08
2	1	0	0	1	18.4961	-0.173744	-0.17381	-0.000108593	1	3.32612e-06	1.88745e-08
2	1	0	0	1	18.5961	-0.168744	-0.168794	-0.000101091	1	3.31582e-06	1.70635e-08
2	1	0	0	1	18.6961	-0.163744	-0.163817	-9.63957e-05	1	3.30623e-06	1.57913e-08
2	1	0	0	1	18.7961	-0.158743	-0.158807	-8.88761e-05	1	3.29725e-06	1.41142e-08
2	1	0	0	1	18.8961	-0.153743	-0.153783	-8.48028e-05	1	3.28885e-06	1.30413e-08
2	1	0	0	1	18.9961	-0.148743	-0.148815	-8.00512e-05	1	3.28096e-06	1.19129e-08
2	1	0	0	1	19.0961	-0.143743	-0.143854	-7.45895e-05	1	3.27354e-06	1.073e-08
2	1	0	0	1	19.1961	-0.138743	-0.138799	-7.06134e-05	1	3.26659e-06	9.8011e-09
2	1	0	0	1	19.2961	-0.133743	-0.133747	-6.54308e-05	1	3.26005e-06	8.75116e-09
2	1	0	0	1	19.3961	-0.128742	-0.128857	-6.05025e-05	1	3.25391e-06	7.79615e-09
2	1	0	0	1	19.4961	-0.123742	-0.123793	-5.94303e-05	1	3.24815e-06	7.35708e-09
2	1	0	0	1	19.5961	-0.118742	-0.118826	-5.49666e-05	1	3.24276e-06	6.53144e-09
2	1	0	0	1	19.6961	-0.113742	-0.113825	-5.2287e-05	1	3.23773e-06	5.95157e-09
2	1	0	0	1	19.7961	-0.108742	-0.108886	-4.78587e-05	1	3.23299e-06	5.21113e-09
2	1	0	0	1	19.8961	-0.103742	-0.103808	-4.57143e-05	1	3.22858e-06	4.7455e-09
2	1	0	0	1	19.9961	-0.0987416	-0.0988327	-4.28545e-05	2	3.22447e-06	4.23542e-09
2	1	0	1	1	20.0963	-0.0937414	-0.0937887	-3.98216e-05	2	3.22062e-06	3.73481e-09
2	1	0	1	1	20.1963	-0.0887413	-0.0887997	-3.63541e-05	2	3.21708e-06	3.22824e-09
2	1	0	1	1	20.2963	-0.0837411	-0.0838521	-3.3784e-05	2	3.2138e-06	2.83286e-09
2	1	0	1	1	20.3963	-0.078741	-0.0788112	-3.12051e-05	2	3.21077e-06	2.45931e-09
2	1	0	1	1	20.4963	-0.0737408	-0.0738594	-2.97902e-05	2	3.20801e-06	2.20028e-09
2	1	0	1	1	20.5963	-0.0687407	-0.0688535	-2.68986e-05	2	3.20549e-06	1.85206e-09
2	1	0	1	1	20.6963	-0.0637405	-0.0638263	-2.35513e-05	2	3.20322e-06	1.50319e-09
2	1	0	1	1	20.7963	-0.0587404	-0.0588745	-2.18697e-05	2	3.2012e-06	1.28757e-09
2	1	0	1	1	20.8963	-0.0537402	-0.0537901	-1.91547e-05	2	3.19943e-06	1.03034e-09
2	1	0	1	1	20.9963	-0.0487401	-0.0488447	-1.63426e-05	2	3.19795e-06	7.9825e-10
2	1	0	1	1	21.0963	-0.0437399	-0.0438123	-1.38891e-05	2	3.19673e-06	6.08513e-10
2	1	0	1	1	21.1963	-0.0387398	-0.0388191	-9.43954e-06	2	3.19581e-06	3.66434e-10
2	1	0	1	1	21.2963	-0.0337396	-0.0338312	-5.43689e-06	2	3.1952e-06	1.83936e-10
2	1	0	1	1	21.3963	-0.0287395	-0.0287988	-3.08229e-06	2	3.19495e-06	8.8766e-11
2	1	0	1	1	21.4963	-0.0237393	-0.0238374	2.06676e-06	2	3.19515e-06	-4.92661e-11
2	1	0	1	1	21.5963	-0.0187392	-0.0187626	7.15398e-06	2	3.19584e-06	-1.34227e-10
2	1	0	1	1	21.6963	-0.013739	-0.0137736	1.49756e-05	2	3.19714e-06	-2.06268e-10
2	1	0	1	1	21.7963	-0.00873889	-0.00882495	2.29332e-05	2	3.19919e-06	-2.02384e-10
2	1	0	1	1	21.8963	-0.00373874	-0.00383707	3.25088e-05	2	3.2022e-06	-1.24739e-10
2	1	0	1	1	21.9963	0.0012614	0.00122185	4.78782e-05	2	3.20648e-06	5.84999e-11
2	1	0	1	1	22.0963	0.00626155	0.00621609	6.55669e-05	2	3.21229e-06	4.0757e-10
2	1	0	1	1	22.1963	0.0112617	0.0112252	8.85389e-05	2	3.22011e-06	9.93865e-10
2	1	0	1	1	22.2963	0.0162618	0.0162544	0.000116766	2	3.23053e-06	1.89796e-09
2	1	0	1	1	22.3963	0.021262	0.0211988	0.000153157	2	3.24427e-06	3.24675e-09
2	1	0	1	1	22.4963	0.0262621	0.0262217	0.000201966	2	3.26221e-06	5.2959e-09
2	1	0	1	1	22.5963	0.0312623	0.0312032	0.000258418	2	3.28535e-06	8.06349e-09
2	1	0	1	1	22.6963	0.0362624	0.0362197	0.000328304	2	3.31484e-06	1.18911e-08
2	1	0	1	1	22.7963	0.0412626	0.041214	0.000408156	2	3.35188e-06	1.68217e-08
2	1	0	1	1	22.8963	0.0462627	0.0462093	0.000500886	2	3.39758e-06	2.31456e-08
2	1	0	1	1	22.9963	0.0512629	0.0512311	0.00060235	2	3.45295e-06	3.0859e-08
2	1	0	1	1	23.0963	0.056263	0.0562317	0.000705258	2	3.5186e-06	3.96579e-08
2	1	0	1	1	23.1963	0.0612632	0.0612524	0.000808418	2	3.59461e-06	4.95176e-08
2	1	0	1	1	23.2963	0.0662633	0.0662202	0.000904879	2	3.68062e-06	5.99212e-08
2	1	0	1	1	23.3963	0.0712635	0.0712282	0.00098706	2	3.77558e-06	7.03065e-08
2	1	0	1	1	23.4963	0.0762636	0.0762373	0.00105229	2	3.87798e-06	8.02239e-08
2	1	0	1	1	23.5963	0.0812637	0.0811891	0.00109885	2	3.986e-06	8.92146e-08
2	1	0	1	1	23.6963	0.0862639	0.0862046	0.00112452	2	4.09759e-06	9.69389e-08
2	1	0	1	1	23.7963	0.091264	0.0912031	0.00113203	2	4.21088e-06	1.03244e-07
2	1	0	1	1	23.8963	0.0962642	0.0961804	0.00112431	2	4.32413e-06	1.08136e-07
2	1	0	1	1	23.9963	0.101264	0.101189	0.00110443	2	4.43599e-06	1.11756e-07
2	1	0	1	1	24.0963	0.106264	0.106191	0.00107932	2	4.54548e-06	1.14614e-07
2	1	0	1	1	24.1963	0.111265	0.111203	0.00104553	2	4.65197e-06	1.16267e-07
2	1	0	1	1	24.2963	0.116265	0.116205	0.00101097	2	4.75512e-06	1.1748e-07
2	1	0	1	1	24.3963	0.121265	0.121149	0.000978166	2	4.85479e-06	1.18504e-07
2	1	0	1	1	24.4963	0.126265	0.12618	0.000942694	2	4.95099e-06	1.18949e-07
2	1	0	1	1	24.5963	0.131265	0.131178	0.000909019	2	5.04389e-06	1.19244e-07
2	1	0	1	1	24.6963	0.136265	0.136209	0.000878812	2	5.13366e-06	1.19702e-07
2	1	0	1	1	24.7963	0.141265	0.141201	0.000851716	2	5.2205e-06	1.20263e-07
2	1	0	1	1	24.8963	0.146266	0.146168	0.000827661	2	5.30464e-06	1.20978e-07
2	1	0	1	1	24.9963	0.151266	0.151197	0.000803482	2	5.3863e-06	1.21484e-07
2	1	0	1	1	25.0963	0.156266	0.156211	0.000779436	2	5.46575e-06	1.21757e-07
2	1	0	1	1	25.1963	0.161266	0.161161	0.000761679	2	5.5431e-06	1.22753e-07
2	1	0	1	1	25.2963	0.166266	0.166222	0.000743983	2	5.61855e-06	1.23666e-07
2	1	0	1	1	25.3963	0.171266	0.171149	0.000726409	2	5.69226e-06	1.24324e-07
2	1	0	1	1	25.4963	0.176267	0.176202	0.000711706	2	5.76437e-06	1.25404e-07
2	1	0	1	1	25.5963	0.181267	0.181183	0.000696836	2	5.83504e-06	1.26255e-07
2	1	0	1	1	25.6963	0.186267	0.186151	0.000685242	2	5.90437e-06	1.27558e-07
2	1	0	1	1	25.7963	0.191267	0.191202	0.000674182	2	5.97246e-06	1.28905e-07
2	1	0	1	1	25.8963	0.196267	0.196162	0.0006619	2	6.03945e-06	1.2984e-07
2	1	0	1	1	25.9963	0.201267	0.201207	0.000651906	2	6.10541e-06	1.31168e-07
2	1	0	1	1	26.0963	0.206267	0.206108	0.000643321	2	6.17047e-06	1.32594e-07
2	1	0	1	1	26.1963	0.211268	0.211209	0.000635042	2	6.23464e-06	1.34127e-07
2	1	0	1	1	26.2963	0.216268	0.216183	0.000627028	2	6.29804e-06	1.35553e-07
2	1	0	1	1	26.3963	0.221268	0.221221	0.000620572	2	6.36073e-06	1.37284e-07
2	1	0	1	1	26.4963	0.226268	0.22621	0.000613892	2	6.42276e-06	1.38868e-07
2	1	0	1	1	26.5963	0.231268	0.231186	0.000609795	2	6.4842e-06	1.40976e-07
2	1	0	1	1	26.6963	0.236268	0.236172	0.000603369	2	6.54511e-06	1.42499e-07
2	1	0	0	1	26.7965	0.241268	0.241184	0.000599057	2	6.60564e-06	1.44483e-07
2	1	0	0	1	26.8965	0.246269	0.246129	0.000596535	2	6.66565e-06	1.46824e-07
2	1	0	0	1	26.9965	0.251269	0.251164	0.000591499	2	6.72529e-06	1.48563e-07
2	1	0	0	1	27.0965	0.256269	0.25619	0.000590536	2	6.78465e-06	1.5129e-07
2	1	0	0	1	27.1965	0.261269	0.261253	0.000588037	2	6.84375e-06	1.53627e-07
2	1	0	0	1	27.2965	0.266269	0.266207	0.000585912	2	6.90264e-06	1.55974e-07
2	1	0	0	1	27.3965	0.271269	0.271249	0.000584269	2	6.96141e-06	1.58483e-07
2	1	0	0	1	27.4965	0.276269	0.276196	0.000584463	2	7.0201e-06	1.61426e-07
2	1	0	0	1	27.5965	0.28127	0.281234	0.000584098	2	7.07876e-06	1.64268e-07
2	1	0	0	1	27.6965	0.28627	0.286202	0.000584649	2	7.13745e-06	1.67328e-07
2	1	0	0	1	27.7965	0.29127	0.291203	0.000585673	2	7.19624e-06	1.7055e-07
2	1	0	0	1	27.8965	0.29627	0.296184	0.000587535	2	7.25517e-06	1.74019e-07
2	0	0	0	1	27.9869	0.29922	0.299072	0.000487884	2	7.30705e-06	1.45913e-07
2	0	0	0	1	28.0869	0.29422	0.294151	0.000442913	2	7.3531e-06	1.30283e-07
2	0	0	0	1	28.1869	0.28922	0.289092	0.000418168	2	7.39597e-06	1.20889e-07
2	0	0	0	1	28.2869	0.28422	0.284093	0.000400663	2	7.43668e-06	1.13825e-07
2	0	0	0	1	28.3869	0.27922	0.279098	0.000383228	2	7.47569e-06	1.06958e-07
2	0	0	0	1	28.4869	0.274219	0.274128	0.000370807	2	7.51327e-06	1.01648e-07
2	0	0	0	1	28.5869	0.269219	0.269131	0.000359806	2	7.54964e-06	9.6835e-08
2	0	0	0	1	28.6869	0.264219	0.264148	0.000349156	2	7.58493e-06	9.22288e-08
2	0	0	0	1	28.7869	0.259219	0.2591	0.000338948	2	7.61926e-06	8.78216e-08
2	0	0	0	1	28.8869	0.254219	0.254099	0.000332501	2	7.65271e-06	8.44881e-08
2	0	0	0	1	28.9869	0.249219	0.249056	0.00032448	2	7.68539e-06	8.08135e-08
2	0	0	0	1	29.0869	0.244219	0.24411	0.000318305	2	7.71735e-06	7.77014e-08
2	0	0	0	1	29.1869	0.239218	0.239116	0.000311605	2	7.74863e-06	7.45096e-08
2	0	0	1	1	29.2871	0.234218	0.234069	0.000306194	2	7.77935e-06	7.16705e-08
2	0	0	1	1	29.3871	0.229218	0.229141	0.000299713	2	7.80939e-06	6.86766e-08
2	0	0	1	1	29.4871	0.224218	0.224084	0.00029455	2	7.83888e-06	6.60041e-08
2	0	0	1	1	29.5871	0.219218	0.21911	0.000289846	2	7.86783e-06	6.35083e-08
2	0	0	1	1	29.6871	0.214218	0.214064	0.000283554	2	7.89622e-06	6.06988e-08
2	0	0	1	1	29.7871	0.209218	0.209114	0.000278515	2	7.92413e-06	5.82414e-08
2	0	0	1	1	29.8871	0.204217	0.204129	0.000273687	2	7.95153e-06	5.58674e-08
2	0	0	1	1	29.9871	0.199217	0.199056	0.000267553	2	7.97842e-06	5.32579e-08
2	0	0	1	1	30.0871	0.194217	0.1941	0.000262741	2	8.00483e-06	5.09979e-08
2	0	0	1	1	30.1871	0.189217	0.18911	0.000259054	2	8.03077e-06	4.89897e-08
2	0	0	1	1	30.2871	0.184217	0.184056	0.000252937	2	8.05623e-06	4.65547e-08
2	0	0	1	1	30.3871	0.179217	0.179063	0.000247426	2	8.08121e-06	4.43049e-08
2	0	0	1	1	30.4871	0.174216	0.174095	0.000242422	2	8.10569e-06	4.22045e-08
2	0	0	1	1	30.5871	0.169216	0.16912	0.000238827	2	8.12968e-06	4.03905e-08
2	0	0	1	1	30.6871	0.164216	0.164062	0.000234314	2	8.15316e-06	3.84421e-08
2	0	0	1	1	30.7871	0.159216	0.159069	0.000228176	2	8.17611e-06	3.62957e-08
2	0	0	1	1	30.8871	0.154216	0.154108	0.000222176	2	8.1985e-06	3.4239e-08
2	0	0	1	1	30.9871	0.149216	0.149064	0.00021655	2	8.22029e-06	3.22797e-08
2	0	0	1	1	31.0871	0.144216	0.144076	0.000210219	2	8.24147e-06	3.02874e-08
2	0	0	1	1	31.1871	0.139215	0.13912	0.000202789	2	8.26197e-06	2.8212e-08
2	0	0	1	1	31.2871	0.134215	0.134109	0.0001946	2	8.28172e-06	2.60978e-08
2	0	0	1	1	31.3871	0.129215	0.129157	0.000186129	2	8.30063e-06	2.40398e-08
2	0	0	1	1	31.4871	0.124215	0.124078	0.000175629	2	8.31854e-06	2.17916e-08
2	0	0	1	1	31.5871	0.119215	0.119145	0.000163206	2	8.33537e-06	1.94452e-08
2	0	0	1	1	31.6871	0.114215	0.114119	0.000147226	2	8.35085e-06	1.68012e-08
2	0	0	1	1	31.7871	0.109215	0.109088	0.00013012	2	8.36477e-06	1.41946e-08
2	0	0	1	1	31.8871	0.104214	0.104146	0.000111574	2	8.37678e-06	1.16201e-08
2	0	0	1	1	31.9871	0.0992143	0.0991212	8.56473e-05	2	8.38646e-06	8.48946e-09
2	0	0	1	1	32.0871	0.0942141	0.0941333	5.29973e-05	2	8.39332e-06	4.9888e-09
2	0	0	1	1	32.1871	0.089214	0.089122	1.54207e-05	2	8.39669e-06	1.37433e-09
2	0	0	1	1	32.2871	0.0842138	0.0841108	-3.30845e-05	2	8.39575e-06	-2.78277e-09
2	0	0	1	1	32.3871	0.0792137	0.079071	-8.98512e-05	2	8.38958e-06	-7.10462e-09
2	0	0	1	1	32.4871	0.0742135	0.0741287	-0.000158986	2	8.37712e-06	-1.17854e-08
2	0	0	1	1	32.5871	0.0692134	0.0691408	-0.000239491	2	8.35723e-06	-1.65586e-08
2	0	0	1	1	32.6871	0.0642132	0.0641063	-0.000330028	2	8.32875e-06	-2.11569e-08
2	0	0	1	1	32.7871	0.0592131	0.0591534	-0.000431523	2	8.29061e-06	-2.55261e-08
2	0	0	1	1	32.8871	0.054213	0.0540977	-0.000538359	2	8.24207e-06	-2.91239e-08
2	0	0	1	1	32.9871	0.0492128	0.0491225	-0.000645074	2	8.1828e-06	-3.16876e-08
2	0	0	1	1	33.0871	0.0442127	0.0441367	-0.000744614	2	8.1131e-06	-3.28648e-08
2	0	0	1	1	33.1871	0.0392125	0.039152	-0.000832327	2	8.03406e-06	-3.25873e-08
2	0	0	1	1	33.2871	0.0342124	0.0341673	-0.000897573	2	7.94726e-06	-3.06677e-08
2	0	0	1	1	33.3871	0.0292122	0.0291519	-0.000942932	2	7.85487e-06	-2.74883e-08
2	0	0	1	1	33.4871	0.0242121	0.0241174	-0.000963687	2	7.75926e-06	-2.32416e-08
2	0	0	1	1	33.5871	0.0192119	0.0191676	-0.000963141	2	7.66267e-06	-1.84611e-08
2	0	0	1	1	33.6871	0.0142118	0.0141522	-0.000944075	2	7.56709e-06	-1.33607e-08
2	0	0	1	1	33.7871	0.00921164	0.00905829	-0.000913117	2	7.474e-06	-8.27128e-09
2	0	0	1	1	33.8871	0.00421149	0.00410645	-0.000873606	2	7.38443e-06	-3.58742e-09
2	0	0	1	1	33.9871	-0.000788657	-0.000875078	-0.000839584	2	7.2989e-06	7.34702e-10
2	0	0	1	1	34.0871	-0.00578881	-0.00592657	-0.000790852	2	7.21759e-06	4.68704e-09
2	0	0	1	1	34.1871	-0.010789	-0.0108731	-0.000748346	2	7.14053e-06	8.13685e-09
2	0	0	1	1	34.2871	-0.0157891	-0.0159034	-0.000710815	2	7.06749e-06	1.13044e-08
2	0	0	1	1	34.3871	-0.0207893	-0.0209687	-0.000675251	2	6.99818e-06	1.41591e-08
2	0	0	1	1	34.4871	-0.0257894	-0.0258908	-0.000641634	2	6.93229e-06	1.66125e-08
2	0	0	1	1	34.5871	-0.0307896	-0.0309381	-0.00061195	2	6.86947e-06	1.89326e-08
2	0	0	1	1	34.6871	-0.0357897	-0.0359037	-0.000585883	2	6.80944e-06	2.10354e-08
2	0	0	1	1	34.7871	-0.0407899	-0.0409361	-0.000562936	2	6.75191e-06	2.30444e-08
2	0	0	1	1	34.8871	-0.04579	-0.0459113	-0.000541264	2	6.69663e-06	2.48501e-08
2	0	0	1	1	34.9871	-0.0507901	-0.0508918	-0.000520774	2	6.64339e-06	2.65031e-08
2	0	0	1	1	35.0871	-0.0557903	-0.0559083	-0.000504053	2	6.59195e-06	2.81808e-08
2	0	0	1	1	35.1871	-0.0607904	-0.0608856	-0.000488658	2	6.54219e-06	2.97522e-08
2	0	0	1	1	35.2871	-0.0657906	-0.065953	-0.000474307	2	6.49395e-06	3.1282e-08
2	0	0	1	1	35.3871	-0.0707907	-0.0708921	-0.000459828	2	6.4471e-06	3.25982e-08
2	0	0	1	1	35.4871	-0.0757909	-0.0758853	-0.000447502	2	6.40154e-06	3.39588e-08
2	0	0	1	1	35.5871	-0.080791	-0.0808848	-0.000435789	2	6.35714e-06	3.52487e-08
2	0	0	1	1	35.6871	-0.0857912	-0.0859098	-0.000428035	2	6.31384e-06	3.67724e-08
2	0	0	1	1	35.7871	-0.0907913	-0.090903	-0.000416677	2	6.27154e-06	3.78772e-08
2	0	0	1	1	35.8871	-0.0957915	-0.0958718	-0.000408064	2	6.23018e-06	3.91218e-08
2	0	0	0	1	35.9873	-0.100792	-0.100933	-0.000400048	2	6.18962e-06	4.0378e-08
2	0	0	0	1	36.0873	-0.105792	-0.10587	-0.000392188	2	6.14994e-06	4.15208e-08
2	0	0	0	1	36.1873	-0.110792	-0.110828	-0.00038508	2	6.11103e-06	4.26776e-08
2	0	0	0	1	36.2873	-0.115792	-0.115866	-0.000377685	2	6.07281e-06	4.37608e-08
2	0	0	0	1	36.3873	-0.120792	-0.120866	-0.000372427	2	6.03526e-06	4.50139e-08
2	0	0	0	1	36.4873	-0.125792	-0.125906	-0.000364344	2	5.99835e-06	4.58731e-08
2	0	0	0	1	36.5873	-0.130793	-0.130944	-0.000359052	2	5.962e-06	4.70156e-08
2	0	0	0	1	36.6873	-0.135793	-0.135903	-0.000353629	2	5.92621e-06	4.80593e-08
2	0	0	0	1	36.7873	-0.140793	-0.140921	-0.000349577	2	5.89097e-06	4.92626e-08
2	0	0	0	1	36.8873	-0.145793	-0.145849	-0.000344156	2	5.8562e-06	5.01949e-08
2	0	0	0	1	36.9873	-0.150793	-0.150885	-0.000341119	2	5.82185e-06	5.14697e-08
2	0	0	0	1	37.0873	-0.155793	-0.155894	-0.000335698	2	5.7879e-06	5.23333e-08
2	0	0	0	1	37.1873	-0.160793	-0.160896	-0.000332035	2	5.75441e-06	5.34229e-08
2	0	0	0	1	37.2873	-0.165794	-0.165881	-0.000328726	2	5.7213e-06	5.45296e-08
2	0	0	0	1	37.3873	-0.170794	-0.170867	-0.000323835	2	5.68857e-06	5.53328e-08
2	0	0	0	1	37.4873	-0.175794	-0.175864	-0.00032303	2	5.65611e-06	5.68091e-08
2	0	0	0	1	37.5873	-0.180794	-0.180879	-0.000319389	2	5.62389e-06	5.77708e-08
2	0	0	0	1	37.6873	-0.185794	-0.185848	-0.000318103	2	5.59192e-06	5.91188e-08
2	0	0	0	1	37.7873	-0.190794	-0.190883	-0.000315717	2	5.56016e-06	6.02651e-08
2	0	0	0	1	37.8873	-0.195794	-0.195952	-0.000314348	2	5.52855e-06	6.1597e-08
2	1	0	1	0	37.9714	-0.20002	-0.200158	-0.00033098	2	5.50211e-06	6.62484e-08
2	1	0	1	0	38.0667	-0.195244	-0.195327	-0.000180116	2	5.48378e-06	3.51816e-08
2	1	0	1	0	38.1667	-0.190244	-0.190365	-0.000162908	2	5.467e-06	3.10119e-08
2	1	0	1	0	38.2667	-0.185244	-0.185316	-0.000150645	2	5.45164e-06	2.79169e-08
2	1	0	1	0	38.3667	-0.180244	-0.180317	-0.000140057	2	5.4374e-06	2.52548e-08
2	1	0	1	0	38.4667	-0.175244	-0.175253	-0.000131902	2	5.42408e-06	2.31162e-08
2	1	0	1	0	38.5667	-0.170244	-0.170306	-0.000125358	2	5.41156e-06	2.13492e-08
2	1	0	1	0	38.6667	-0.165244	-0.165283	-0.000117762	2	5.39977e-06	1.94641e-08
2	1	0	1	0	38.7667	-0.160243	-0.160306	-0.000111136	2	5.38861e-06	1.78158e-08
2	1	0	1	0	38.8667	-0.155243	-0.155316	-0.000106448	2	5.37804e-06	1.65331e-08
2	1	0	1	0	38.9667	-0.150243	-0.150283	-9.99497e-05	2	5.36805e-06	1.50207e-08
2	1	0	1	0	39.0667	-0.145243	-0.145319	-9.53835e-05	2	5.35853e-06	1.38611e-08
2	1	0	1	0	39.1667	-0.140243	-0.140245	-9.02857e-05	2	5.34948e-06	1.26622e-08
2	1	0	1	0	39.2667	-0.135243	-0.135291	-8.62389e-05	2	5.34089e-06	1.16674e-08
2	1	0	1	0	39.3667	-0.130243	-0.130312	-8.23458e-05	2	5.33271e-06	1.07306e-08
2	1	0	1	0	39.4667	-0.125242	-0.125354	-7.85957e-05	2	5.32495e-06	9.85228e-09
2	1	0	1	0	39.5667	-0.120242	-0.120212	-7.38759e-05	2	5.31757e-06	8.88079e-09
2	1	0	1	0	39.6667	-0.115242	-0.115277	-7.23939e-05	2	5.31057e-06	8.34538e-09
2	1	0	1	0	39.7667	-0.110242	-0.110257	-6.73279e-05	2	5.3039e-06	7.42335e-09
2	1	0	1	0	39.8667	-0.105242	-0.105328	-6.43762e-05	2	5.29758e-06	6.78063e-09
2	1	0	1	0	39.9667	-0.100242	-0.100247	-5.98772e-05	2	5.29158e-06	6.00251e-09
2	1	0	0	0	40.0669	-0.0952415	-0.0953057	-5.73248e-05	3	5.28587e-06	5.46338e-09
2	1	0	0	0	40.1669	-0.0902413	-0.0903454	-5.65635e-05	3	5.28048e-06	5.11025e-09
2	1	0	0	0	40.2669	-0.0852412	-0.0853617	-5.27463e-05	3	5.27537e-06	4.50251e-09
2	1	0	0	0	40.3669	-0.080241	-0.0802731	-4.95721e-05	3	5.27053e-06	3.9793e-09
2	1	0	0	0	40.4669	-0.0752409	-0.0753192	-4.77703e-05	3	5.26598e-06	3.59802e-09
2	1	0	0	0	40.5669	-0.0702407	-0.0704203	-4.41934e-05	3	5.26168e-06	3.11211e-09
2	1	0	0	0	40.6669	-0.0652406	-0.0653286	-4.2533e-05	3	5.25764e-06	2.77862e-09
2	1	0	0	0	40.7669	-0.0602404	-0.0603248	-3.96202e-05	3	5.25387e-06	2.39008e-09
2	1	0	0	0	40.8669	-0.0552403	-0.0552733	-3.65113e-05	3	5.25035e-06	2.0181e-09
2	1	0	0	0	40.9669	-0.0502401	-0.0503235	-3.50947e-05	3	5.24714e-06	1.76609e-09
2	1	0	0	0	41.0669	-0.04524	-0.0452604	-3.2461e-05	3	5.24419e-06	1.4692e-09
2	1	0	0	0	41.1669	-0.0402398	-0.0403287	-2.72837e-05	3	5.24154e-06	1.10031e-09
2	1	0	0	0	41.2669	-0.0352397	-0.0352655	-2.47895e-05	3	5.23924e-06	8.74216e-10
2	1	0	0	0	41.3669	-0.0302395	-0.0303571	-2.02358e-05	3	5.2373e-06	6.143e-10
2	1	0	0	0	41.4669	-0.0252394	-0.0253269	-1.57738e-05	3	5.23577e-06	3.99502e-10
2	1	0	0	0	41.5669	-0.0202392	-0.0203019	-1.08509e-05	3	5.23475e-06	2.20293e-10
2	1	0	0	0	41.6669	-0.0152391	-0.0153129	-4.91934e-06	3	5.23433e-06	7.53294e-11
2	1	0	0	0	41.7669	-0.0102389	-0.0103134	4.10518e-06	3	5.23464e-06	-4.23382e-11
2	1	0	0	0	41.8669	-0.00523879	-0.00538061	1.3868e-05	3	5.23587e-06	-7.46185e-11
2	1	0	0	0	41.9669	-0.000237126	-0.000245364	2.7623e-05	3	5.23828e-06	-6.77769e-12
2	1	0	0	0	42.0669	0.00476151	0.00469906	4.39992e-05	3	5.24217e-06	2.06755e-10
2	1	0	0	0	42.1669	0.00976165	0.00973995	6.5143e-05	3	5.24793e-06	6.34489e-10
2	1	0	0	0	42.2669	0.0147618	0.0146822	9.31174e-05	3	5.25613e-06	1.36717e-09
2	1	0	0	0	42.3669	0.0197619	0.019721	0.000128175	3	5.26738e-06	2.52774e-09
2	1	0	0	0	42.4669	0.0247621	0.0247312	0.000171379	3	5.28252e-06	4.23841e-09
2	1	0	0	0	42.5669	0.0297622	0.0296883	0.000222887	3	5.30248e-06	6.61715e-09
2	1	0	0	0	42.6669	0.0347624	0.0348055	0.00028737	3	5.32831e-06	1.00021e-08
2	1	0	0	0	42.7669	0.0397625	0.0396863	0.00036365	3	5.36116e-06	1.44319e-08
2	1	0	0	0	42.8669	0.0447627	0.0446732	0.000451325	3	5.40212e-06	2.01621e-08
2	1	0	0	0	42.9669	0.0497628	0.0496632	0.000546392	3	5.45217e-06	2.71356e-08
2	1	0	0	0	43.0669	0.054763	0.0547337	0.000646119	3	5.51215e-06	3.53645e-08
2	1	0	0	0	43.1669	0.0597631	0.0597036	0.000746977	3	5.58223e-06	4.45972e-08
2	1	0	0	0	43.2669	0.0647633	0.0647286	0.000845229	3	5.66223e-06	5.47105e-08
2	1	0	0	0	43.3669	0.0697634	0.0697122	0.000930322	3	5.7514e-06	6.48548e-08
2	1	0	0	0	43.4669	0.0747636	0.0747128	0.00100071	3	5.84846e-06	7.47661e-08
2	1	0	0	0	43.5669	0.0797637	0.0797336	0.0010542	3	5.95177e-06	8.40549e-08
2	1	0	0	0	43.6669	0.0847639	0.0846929	0.00108901	3	6.05941e-06	9.22316e-08
2	1	0	0	0	43.7669	0.089764	0.0896617	0.00110252	3	6.16946e-06	9.88534e-08
2	1	0	0	0	43.8669	0.0947641	0.094693	0.00110245	3	6.28019e-06	1.04395e-07
2	1	0	0	0	43.9669	0.0997643	0.0997456	0.00108849	3	6.39012e-06	1.08572e-07
2	1	0	0	0	44.0669	0.104764	0.104719	0.00106495	3	6.49813e-06	1.1152e-07
2	1	0	0	0	44.1669	0.109765	0.109681	0.00103434	3	6.60344e-06	1.13447e-07
2	1	0	0	0	44.2669	0.114765	0.114706	0.00100225	3	6.70559e-06	1.14964e-07
2	1	0	0	0	44.3669	0.119765	0.119658	0.000968835	3	6.80435e-06	1.15929e-07
2	1	0	0	0	44.4669	0.124765	0.12467	0.000933938	3	6.89968e-06	1.16434e-07
2	1	0	0	0	44.5669	0.129765	0.129735	0.000900313	3	6.99168e-06	1.16802e-07
2	1	0	0	0	44.6669	0.134765	0.134685	0.000868385	3	7.08047e-06	1.16959e-07
2	1	0	0	0	44.7669	0.139765	0.139672	0.000840983	3	7.16628e-06	1.17462e-07
2	1	0	0	0	44.8669	0.144766	0.144664	0.000815141	3	7.24932e-06	1.17922e-07
2	1	0	0	0	44.9669	0.149766	0.149681	0.000788464	3	7.3298e-06	1.18018e-07
2	1	0	0	0	45.0669	0.154766	0.154684	0.000766775	3	7.40796e-06	1.18608e-07
2	1	0	0	0	45.1669	0.159766	0.159678	0.000746792	3	7.48393e-06	1.19246e-07
2	1	0	0	0	45.2669	0.164766	0.164632	0.000727658	3	7.55794e-06	1.19795e-07
2	1	0	0	0	45.3669	0.169766	0.169758	0.000711135	3	7.63015e-06	1.20721e-07
2	1	0	0	0	45.4669	0.174766	0.174706	0.000695011	3	7.7007e-06	1.21423e-07
2	1	0	0	0	45.5669	0.179767	0.179654	0.000680497	3	7.76971e-06	1.22254e-07
2	1	0	0	0	45.6669	0.184767	0.1847	0.000667037	3	7.83733e-06	1.23202e-07
2	1	0	0	0	45.7669	0.189767	0.189701	0.000653097	3	7.90365e-06	1.23893e-07
2	1	0	0	0	45.8669	0.194767	0.194682	0.000641963	3	7.9688e-06	1.24979e-07
2	1	0	0	0	45.9669	0.199767	0.199691	0.000632474	3	8.03285e-06	1.26299e-07
2	1	0	0	0	46.0669	0.204767	0.204664	0.000622943	3	8.09591e-06	1.27494e-07
2	1	0	0	0	46.1669	0.209768	0.209682	0.000613104	3	8.15804e-06	1.28557e-07
2	1	0	0	0	46.2669	0.214768	0.214681	0.000604814	3	8.21931e-06	1.29842e-07
2	1	0	0	0	46.3669	0.219768	0.219691	0.000598072	3	8.27983e-06	1.31391e-07
2	1	0	0	0	46.4669	0.224768	0.224695	0.000591621	3	8.3396e-06	1.32934e-07
2	1	0	0	0	46.5669	0.229768	0.229666	0.000583893	3	8.3987e-06	1.341e-07
2	1	0	0	0	46.6669	0.234768	0.234686	0.000576984	3	8.45718e-06	1.3541e-07
2	1	0	1	0	46.7671	0.239768	0.239666	0.000573059	3	8.51521e-06	1.37343e-07
2	1	0	1	0	46.8671	0.244769	0.24467	0.00056767	3	8.57262e-06	1.38892e-07
2	1	0	1	0	46.9671	0.249769	0.249669	0.000562046	3	8.62956e-06	1.40326e-07
2	1	0	1	0	47.0671	0.254769	0.254682	0.000559524	3	8.68609e-06	1.425e-07
2	1	0	1	0	47.1671	0.259769	0.259713	0.000557047	3	8.7423e-06	1.44672e-07
2	1	0	1	0	47.2671	0.264769	0.264689	0.000553945	3	8.79819e-06	1.46623e-07
2	1	0	1	0	47.3671	0.269769	0.269742	0.000551317	3	8.85385e-06	1.48713e-07
2	1	0	1	0	47.4671	0.274769	0.274659	0.000549441	3	8.90933e-06	1.50909e-07
2	1	0	1	0	47.5671	0.27977	0.279669	0.000549748	3	8.96467e-06	1.53747e-07
2	1	0	1	0	47.6671	0.28477	0.284661	0.00055031	3	9.01997e-06	1.56652e-07
2	1	0	1	0	47.7671	0.28977	0.289694	0.000549826	3	9.07525e-06	1.59282e-07
2	1	0	1	0	47.8671	0.29477	0.294708	0.000550413	3	9.13058e-06	1.62211e-07
2	1	0	1	0	47.9666	0.299745	0.299659	0.00055139	3	9.18574e-06	1.65229e-07
2	0	0	1	0	48.0575	0.29572	0.295599	0.00042184	3	9.22614e-06	1.24696e-07
2	0	0	1	0	48.1575	0.29072	0.290606	0.000397858	3	9.26683e-06	1.1562e-07
2	0	0	1	0	48.2575	0.28572	0.285545	0.000380236	3	9.30544e-06	1.08575e-07
2	0	0	1	0	48.3575	0.28072	0.280592	0.000364552	3	9.34244e-06	1.02291e-07
2	0	0	1	0	48.4575	0.275719	0.275577	0.000352426	3	9.37812e-06	9.71204e-08
2	0	0	1	0	48.5575	0.270719	0.27061	0.000342154	3	9.41266e-06	9.25904e-08
2	0	0	1	0	48.6575	0.265719	0.265596	0.000334153	3	9.4462e-06	8.87495e-08
2	0	0	1	0	48.7575	0.260719	0.260612	0.000325667	3	9.47887e-06	8.48727e-08
2	0	0	1	0	48.8575	0.255719	0.255636	0.000316967	3	9.51073e-06	8.10282e-08
2	0	0	1	0	48.9575	0.250719	0.250624	0.000310623	3	9.54184e-06	7.78493e-08
2	0	0	1	0	49.0575	0.245719	0.245584	0.000304506	3	9.57229e-06	7.47816e-08
2	0	0	1	0	49.1575	0.240718	0.240594	0.000297058	3	9.6021e-06	7.14704e-08
2	0	0	0	0	49.2577	0.235718	0.235584	0.000292005	3	9.63139e-06	6.87915e-08
2	0	0	0	0	49.3577	0.230718	0.230606	0.000286658	3	9.66005e-06	6.61051e-08
2	0	0	0	0	49.4577	0.225718	0.225639	0.000279859	3	9.68817e-06	6.3147e-08
2	0	0	0	0	49.5577	0.220718	0.220591	0.000276277	3	9.71578e-06	6.09442e-08
2	0	0	0	0	49.6577	0.215718	0.215582	0.000270389	3	9.74287e-06	5.82911e-08
2	0	0	0	0	49.7577	0.210718	0.210604	0.000264942	3	9.76949e-06	5.57978e-08
2	0	0	0	0	49.8577	0.205717	0.205646	0.000261669	3	9.79564e-06	5.3811e-08
2	0	0	0	0	49.9577	0.200717	0.200561	0.000256961	3	9.8213e-06	5.15365e-08
2	0	0	0	0	50.0577	0.195717	0.195563	0.000252618	3	9.8465e-06	4.94026e-08
2	0	0	0	0	50.1577	0.190717	0.190555	0.000247557	3	9.87124e-06	4.71731e-08
2	0	0	0	0	50.2577	0.185717	0.185607	0.000243146	3	9.89552e-06	4.51297e-08
2	0	0	0	0	50.3577	0.180717	0.180604	0.00023835	3	9.91936e-06	4.30471e-08
2	0	0	0	0	50.4577	0.175717	0.175601	0.000232405	3	9.94269e-06	4.08104e-08
2	0	0	0	0	50.5577	0.170716	0.170609	0.000228679	3	9.96557e-06	3.90147e-08
2	0	0	0	0	50.6577	0.165716	0.165603	0.000224981	3	9.98795e-06	3.72574e-08
2	0	0	0	0	50.7577	0.160716	0.160588	0.000218445	3	1.00098e-05	3.50797e-08
2	0	0	0	0	50.8577	0.155716	0.155637	0.000213672	3	1.00312e-05	3.32554e-08
2	0	0	0	0	50.9577	0.150716	0.150604	0.000208569	3	1.00519e-05	3.14113e-08
2	0	0	0	0	51.0577	0.145716	0.145589	0.000201606	3	1.00721e-05	2.93515e-08
2	0	0	0	0	51.1577	0.140715	0.140574	0.000194683	3	1.00917e-05	2.73674e-08
2	0	0	0	0	51.2577	0.135715	0.135606	0.00018671	3	1.01105e-05	2.53191e-08
2	0	0	0	0	51.3577	0.130715	0.130567	0.000178901	3	1.01286e-05	2.33584e-08
2	0	0	0	0	51.4577	0.125715	0.125554	0.000169138	3	1.01457e-05	2.1236e-08
2	0	0	0	0	51.5577	0.120715	0.120631	0.00015675	3	1.01618e-05	1.89089e-08
2	0	0	0	0	51.6577	0.115715	0.115615	0.000144322	3	1.01767e-05	1.66857e-08
2	0	0	0	0	51.7577	0.110715	0.110657	0.000129097	3	1.01902e-05	1.42856e-08
2	0	0	0	0	51.8577	0.105714	0.105593	0.00011007	3	1.02018e-05	1.16226e-08
2	0	0	0	0	51.9577	0.100714	0.100618	8.68979e-05	3	1.02114e-05	8.7435e-09
2	0	0	0	0	52.0577	0.0957142	0.0956567	5.82964e-05	3	1.02183e-05	5.57644e-09
2	0	0	0	0	52.1577	0.090714	0.0906783	2.3691e-05	3	1.02221e-05	2.14826e-09
2	0	0	0	0	52.2577	0.0857139	0.0856088	-2.09971e-05	3	1.02219e-05	-1.79753e-09
2	0	0	0	0	52.3577	0.0807137	0.0806294	-7.47344e-05	3	1.02169e-05	-6.02579e-09
2	0	0	0	0	52.4577	0.0757136	0.0756627	-0.000138853	3	1.02062e-05	-1.0506e-08
2	0	0	0	0	52.5577	0.0707134	0.0706695	-0.000213126	3	1.01885e-05	-1.50615e-08
2	0	0	0	0	52.6577	0.0657133	0.0656615	-0.000297927	3	1.01627e-05	-1.95624e-08
2	0	0	0	0	52.7577	0.0607132	0.060628	-0.000395971	3	1.01278e-05	-2.4007e-08
2	0	0	0	0	52.8577	0.055713	0.0556009	-0.000497809	3	1.00829e-05	-2.76787e-08
2	0	0	0	0	52.9577	0.0507129	0.0506342	-0.000602385	3	1.00275e-05	-3.05013e-08
2	0	0	0	0	53.0577	0.0457127	0.0455796	-0.000706279	3	9.96158e-06	-3.21919e-08
2	0	0	0	0	53.1577	0.0407126	0.0406405	-0.000799068	3	9.88587e-06	-3.24745e-08
2	0	0	0	0	53.2577	0.0357124	0.0355561	-0.000875394	3	9.80173e-06	-3.11256e-08
2	0	0	0	0	53.3577	0.0307123	0.0306636	-0.000928863	3	9.71109e-06	-2.84823e-08
2	0	0	0	0	53.4577	0.0257121	0.0256068	-0.000959397	3	9.61622e-06	-2.45671e-08
2	0	0	0	0	53.5577	0.020712	0.0205702	-0.000968676	3	9.51939e-06	-1.99258e-08
2	0	0	0	0	53.6577	0.0157118	0.0156501	-0.00095747	3	9.42274e-06	-1.49845e-08
2	0	0	0	0	53.7577	0.0107117	0.0106474	-0.0009313	3	9.32796e-06	-9.91594e-09
2	0	0	0	0	53.8577	0.00571153	0.00559274	-0.000895361	3	9.23626e-06	-5.00752e-09
2	0	0	0	0	53.9577	0.000711387	0.000591074	-0.000856379	3	9.14837e-06	-5.06183e-10
2	0	0	0	0	54.0577	-0.00428876	-0.00445618	-0.000812892	3	9.06455e-06	3.62239e-09
2	0	0	0	0	54.1577	-0.00928891	-0.00940802	-0.000772586	3	8.985e-06	7.26851e-09
2	0	0	0	0	54.2577	-0.0142891	-0.0143874	-0.000733196	3	8.90952e-06	1.05488e-08
2	0	0	0	0	54.3577	-0.0192892	-0.0194177	-0.000695752	3	8.83788e-06	1.35099e-08
2	0	0	0	0	54.4577	-0.0242894	-0.0243844	-0.000661704	3	8.76974e-06	1.61353e-08
2	0	0	0	0	54.5577	-0.0292895	-0.0293776	-0.000631926	3	8.70478e-06	1.85645e-08
2	0	0	0	0	54.6577	-0.0342897	-0.0343846	-0.000603726	3	8.64273e-06	2.07588e-08
2	0	0	0	0	54.7577	-0.0392898	-0.0394318	-0.000581339	3	8.58327e-06	2.29232e-08
2	0	0	0	0	54.8577	-0.0442899	-0.0443434	-0.000558561	3	8.52613e-06	2.47685e-08
2	0	0	0	0	54.9577	-0.0492901	-0.0494468	-0.000536873	3	8.47111e-06	2.65467e-08
2	0	0	0	0	55.0577	-0.0542902	-0.0544644	-0.000520036	3	8.41794e-06	2.83234e-08
2	0	0	0	0	55.1577	-0.0592904	-0.059483	-0.000503435	3	8.36653e-06	2.99458e-08
2	0	0	0	0	55.2577	-0.0642905	-0.0644031	-0.000488615	3	8.31669e-06	3.14683e-08
2	0	0	0	0	55.3577	-0.0692907	-0.0694503	-0.000474434	3	8.26828e-06	3.29496e-08
2	0	0	0	0	55.4577	-0.0742908	-0.0744329	-0.000462737	3	8.22118e-06	3.44429e-08
2	0	0	0	0	55.5577	-0.079291	-0.0793847	-0.000449579	3	8.1753e-06	3.56897e-08
2	0	0	0	0	55.6577	-0.0842911	-0.0844066	-0.000438893	3	8.13055e-06	3.70454e-08
2	0	0	0	0	55.7577	-0.0892913	-0.089405	-0.000428628	3	8.08686e-06	3.83215e-08
2	0	0	0	0	55.8577	-0.0942914	-0.0944205	-0.000419915	3	8.04412e-06	3.96485e-08
2	0	0	1	0	55.9579	-0.0992916	-0.0993511	-0.000411712	3	8.00221e-06	4.0904e-08
2	0	0	1	0	56.0579	-0.104292	-0.104353	-0.000403738	3	7.96123e-06	4.21312e-08
2	0	0	1	0	56.1579	-0.109292	-0.109375	-0.000394675	3	7.92104e-06	4.31674e-08
2	0	0	1	0	56.2579	-0.114292	-0.114358	-0.000387598	3	7.88158e-06	4.43251e-08
2	0	0	1	0	56.3579	-0.119292	-0.119415	-0.000381944	3	7.8428e-06	4.56099e-08
2	0	0	1	0	56.4579	-0.124292	-0.12442	-0.00037644	3	7.80467e-06	4.68366e-08
2	0	0	1	0	56.5579	-0.129292	-0.129373	-0.000368945	3	7.76717e-06	4.77315e-08
2	0	0	1	0	56.6579	-0.134293	-0.134299	-0.000364708	3	7.73026e-06	4.898e-08
2	0	0	1	0	56.7579	-0.139293	-0.139353	-0.000358259	3	7.69388e-06	4.99244e-08
2	0	0	1	0	56.8579	-0.144293	-0.144381	-0.000352332	3	7.65802e-06	5.08701e-08
2	0	0	1	0	56.9579	-0.149293	-0.14942	-0.000348467	3	7.62266e-06	5.20679e-08
2	0	0	1	0	57.0579	-0.154293	-0.15436	-0.000343986	3	7.58773e-06	5.30977e-08
2	0	0	1	0	57.1579	-0.159293	-0.15939	-0.000340619	3	7.5532e-06	5.42914e-08
2	0	0	1	0	57.2579	-0.164294	-0.164449	-0.000336172	3	7.51908e-06	5.52831e-08
2	0	0	1	0	57.3579	-0.169294	-0.16935	-0.000332944	3	7.48532e-06	5.63842e-08
2	0	0	1	0	57.4579	-0.174294	-0.174426	-0.000330053	3	7.45188e-06	5.75698e-08
2	0	0	1	0	57.5579	-0.179294	-0.179414	-0.000327039	3	7.41875e-06	5.86754e-08
2	0	0	1	0	57.6579	-0.184294	-0.184377	-0.000324499	3	7.38587e-06	5.98303e-08
2	0	0	1	0	57.7579	-0.189294	-0.189377	-0.000322945	3	7.35322e-06	6.11583e-08
2	0	0	1	0	57.8579	-0.194294	-0.19439	-0.000320539	3	7.32078e-06	6.23097e-08
2	0	0	1	0	57.9579	-0.199295	-0.199335	-0.000319652	3	7.2885e-06	6.37178e-08
2	1	0	0	1	58.0373	-0.196744	-0.196807	-0.00019406	3	7.27064e-06	3.81924e-08
2	1	0	0	1	58.1373	-0.191744	-0.19179	-0.00017388	3	7.25265e-06	3.33485e-08
2	1	0	0	1	58.2373	-0.186744	-0.186856	-0.000160479	3	7.23625e-06	2.99864e-08
2	1	0	0	1	58.3373	-0.181744	-0.181802	-0.000149743	3	7.22104e-06	2.72236e-08
2	1	0	0	1	58.4373	-0.176744	-0.176777	-0.000142949	3	7.2068e-06	2.52702e-08
2	1	0	0	1	58.5373	-0.171744	-0.171848	-0.000133919	3	7.19339e-06	2.30137e-08
2	1	0	0	1	58.6373	-0.166744	-0.166854	-0.00012709	3	7.18072e-06	2.12055e-08
2	1	0	0	1	58.7373	-0.161743	-0.161771	-0.000120482	3	7.16869e-06	1.94906e-08
2	1	0	0	1	58.8373	-0.156743	-0.156825	-0.00011469	3	7.15727e-06	1.79863e-08
2	1	0	0	1	58.9373	-0.151743	-0.151785	-0.000108388	3	7.14644e-06	1.64516e-08
2	1	0	0	1	59.0373	-0.146743	-0.146813	-0.000103327	3	7.13611e-06	1.51697e-08
2	1	0	0	1	59.1373	-0.141743	-0.14188	-9.91212e-05	3	7.12625e-06	1.40633e-08
2	1	0	0	1	59.2373	-0.136743	-0.136828	-9.44721e-05	3	7.11685e-06	1.29264e-08
2	1	0	0	1	59.3373	-0.131743	-0.131788	-8.97381e-05	3	7.1079e-06	1.18264e-08
2	1	0	0	1	59.4373	-0.126742	-0.126759	-8.71168e-05	3	7.09937e-06	1.10428e-08
2	1	0	0	1	59.5373	-0.121742	-0.121767	-8.19483e-05	3	7.09122e-06	9.97864e-09
2	1	0	0	1	59.6373	-0.116742	-0.116846	-7.78803e-05	3	7.08346e-06	9.10003e-09
2	1	0	0	1	59.7373	-0.111742	-0.111837	-7.61387e-05	3	7.07607e-06	8.51514e-09
2	1	0	0	1	59.8373	-0.106742	-0.106821	-7.29097e-05	3	7.06902e-06	7.78827e-09
2	1	0	0	1	59.9373	-0.101742	-0.101838	-6.77677e-05	3	7.0623e-06	6.90134e-09
2	1	0	1	1	60.0375	-0.0967415	-0.096828	-6.53318e-05	3	7.05586e-06	6.32595e-09
2	1	0	1	1	60.1375	-0.0917414	-0.0918083	-6.37686e-05	3	7.04976e-06	5.85449e-09
2	1	0	1	1	60.2375	-0.0867412	-0.0868268	-6.19121e-05	3	7.04396e-06	5.37563e-09
2	1	0	1	1	60.3375	-0.0817411	-0.0818368	-5.68602e-05	3	7.03843e-06	4.65326e-09
2	1	0	1	1	60.4375	-0.0767409	-0.0767525	-5.45498e-05	3	7.03318e-06	4.18683e-09
2	1	0	1	1	60.5375	-0.0717408	-0.0718027	-5.22676e-05	3	7.02818e-06	3.75296e-09
2	1	0	1	1	60.6375	-0.0667406	-0.0668042	-5.03864e-05	3	7.02345e-06	3.36602e-09
2	1	0	1	1	60.7178	-0.0627155	-0.0627853	-4.98476e-05	3	7.01986e-06	3.1297e-09