File: AutoAnalysis Examples/EC/C003C-5ppb-A_C01.mpt
EC-Lab ASCII FILE
Nb header lines : 59

Cyclic Voltammetry

Run on channel : 1 (SN 22398)
User :
CE vs. WE compliance from -10 V to 10 V
Electrode connection : standard
Ewe ctrl range : min = -1.00 V, max = 1.00 V
Safety Limits :
	Ewe min = -2.00 V
	Ewe max = 2.00 V
	|I| = 50.000 mA
	for t > 10 ms
Acquisition started on : 11/21/2018 10:27:57
Technique started on : 11/21/2018 10:27:57
Saved on :
	File : C003C-5ppb-A_C01.mpr
	Directory : \\ECCOMPUTER\Users\Lab User\Google Drive\Electrochemical Data\EC-Lab\Data\FREDsense\Tim\2018.11.21 - EC comparison to High Throughput\
	Host : 172.16.1.30
Device : SP-50 (SN 0301030103010301)
Address : USB
EC-Lab for windows v11.02 (software)
Internet server v11.02 (firmware)
Command interpretor v11.02 (firmware)
Electrode material : Au/Pd
Initial state :
Electrolyte : NaCl (0.2M)
Comments : Fe(CN)63-/Fe(CN)64- 5.10-3 M
Reference electrode : SCE Saturated Calomel Electrode (0.241 V)
Electrode surface area : 0.001 cm²
Characteristic mass : 0.001 g
Equivalent Weight : 0.000 g/eq.
Density : 0.000 g/cm3
Cycle Definition : Charge/Discharge alternance
Ei (V)              -0.100
vs.                 Ref
dE/dt               50.000
dE/dt unit          mV/s
E1 (V)              0.300
vs.                 Ref
Step percent        50
N                   10
E range min (V)     -1.000
E range max (V)     1.000
I Range             Auto
I Range min         Unset
I Range max         Unset
I Range init        Unset
Bandwidth           5
E2 (V)              -0.200
vs.                 Ref
nc cycles           2
Reverse Scan        1
Ef (V)              0.000
vs.                 Eoc

mode	ox/red	error	control changes	counter inc.	time/s	control/V	Ewe/V	<I>/mA	cycle number	(Q-Qo)/C	P/W
2	1	0	1	0	0.000000000000000E+000	-0.0984999	-0.0986693	-9.46738e-05	1	0.0000000E+000	9.3414e-09
2	1	0	0	0	0.111	-0.0929498	-0.0929657	-5.83305e-06	1	1.82678e-09	5.42273e-10
2	1	0	1	0	0.2265	-0.0871746	-0.0872349	4.45715e-05	1	6.52184e-09	-3.88819e-09
2	1	0	1	0	0.3265	-0.0821744	-0.0822353	4.99732e-05	1	1.17149e-08	-4.10956e-09
2	1	0	1	0	0.4265	-0.0771742	-0.0772103	5.37144e-05	1	1.73505e-08	-4.14731e-09
2	1	0	1	0	0.5265	-0.0721741	-0.0723115	5.71871e-05	1	2.33184e-08	-4.13529e-09
2	1	0	1	0	0.6265	-0.0671739	-0.0672801	6.02342e-05	1	2.95615e-08	-4.05256e-09
2	1	0	1	0	0.7265	-0.0621737	-0.062253	6.3124e-05	1	3.60867e-08	-3.92966e-09
2	1	0	1	0	0.8265	-0.0571735	-0.0572662	6.52931e-05	1	4.28451e-08	-3.73909e-09
2	1	0	1	0	0.9265	-0.0521733	-0.0522603	6.9778e-05	1	4.98746e-08	-3.64662e-09
2	1	0	1	0	1.0265	-0.0471732	-0.0472385	7.18288e-05	1	5.71701e-08	-3.39308e-09
2	1	0	1	0	1.1265	-0.042173	-0.0422219	7.35457e-05	1	6.47389e-08	-3.10524e-09
2	1	0	1	0	1.2265	-0.0371728	-0.0372871	7.60169e-05	1	7.26442e-08	-2.83445e-09
2	1	0	1	0	1.3265	-0.0321726	-0.0322727	8.06979e-05	1	8.09095e-08	-2.60434e-09
2	1	0	1	0	1.4265	-0.0271725	-0.0272678	8.60624e-05	1	8.9618e-08	-2.34673e-09
2	1	0	1	0	1.5265	-0.0221723	-0.0222577	9.14994e-05	1	9.88905e-08	-2.03656e-09
2	1	0	1	0	1.6265	-0.0171721	-0.0172867	0.000100437	1	1.0887e-07	-1.73623e-09
2	1	0	1	0	1.7265	-0.0121719	-0.0122925	0.000111371	1	1.19752e-07	-1.36903e-09
2	1	0	1	0	1.8265	-0.00717177	-0.00721874	0.000124365	1	1.31827e-07	-8.97758e-10
2	1	0	1	0	1.9265	-0.0021716	-0.00229234	0.000142327	1	1.45471e-07	-3.26263e-10
2	1	0	1	0	2.0265	0.00282858	0.0027899	0.000167013	1	1.61317e-07	4.65948e-10
2	1	0	1	0	2.1265	0.00782875	0.00771417	0.000201459	1	1.80006e-07	1.55409e-09
2	1	0	1	0	2.2265	0.0128289	0.0128102	0.000245798	1	2.0254e-07	3.14871e-09
2	1	0	1	0	2.3265	0.0178291	0.0177345	0.000302237	1	2.30147e-07	5.36002e-09
2	1	0	1	0	2.4265	0.0228293	0.0227944	0.000378526	1	2.64419e-07	8.6283e-09
2	1	0	1	0	2.5265	0.0278294	0.0277908	0.000474894	1	3.07315e-07	1.31977e-08
2	1	0	1	0	2.6265	0.0328296	0.032766	0.000596425	1	3.60995e-07	1.95425e-08
2	1	0	1	0	2.7265	0.0378298	0.0377337	0.000740312	1	4.27915e-07	2.79347e-08
2	1	0	1	0	2.8265	0.04283	0.0427078	0.000908369	1	5.10533e-07	3.87945e-08
2	1	0	1	0	2.9265	0.0478301	0.0476999	0.00109416	1	6.10953e-07	5.21912e-08
2	1	0	1	0	3.0265	0.0528303	0.0527928	0.00129478	1	7.30874e-07	6.83552e-08
2	1	0	1	0	3.1265	0.0578305	0.0577881	0.00149183	1	8.70679e-07	8.62099e-08
2	1	0	1	0	3.2265	0.0628306	0.0627813	0.00167624	1	1.02966e-06	1.05236e-07
2	1	0	1	0	3.3265	0.0678308	0.0676865	0.00183727	1	1.20595e-06	1.24358e-07
2	1	0	1	0	3.4265	0.072831	0.0727761	0.00195794	1	1.39638e-06	1.42492e-07
2	1	0	1	0	3.5265	0.0778312	0.0777778	0.00204378	1	1.59717e-06	1.58961e-07
2	1	0	1	0	3.6265	0.0828313	0.0827847	0.0020853	1	1.80426e-06	1.72631e-07
2	1	0	1	0	3.7265	0.0878315	0.0877631	0.00209223	1	2.01377e-06	1.8362e-07
2	1	0	1	0	3.8265	0.0928317	0.0927531	0.00207095	1	2.22251e-06	1.92087e-07
2	1	0	1	0	3.9265	0.0978318	0.0976975	0.00202722	1	2.42795e-06	1.98055e-07
2	1	0	1	0	4.0265	0.102832	0.102737	0.00197161	1	2.62838e-06	2.02558e-07
2	1	0	1	0	4.1265	0.107832	0.107799	0.00190828	1	2.82286e-06	2.05712e-07
2	1	0	1	0	4.2265	0.112832	0.112757	0.00184519	1	3.01088e-06	2.08058e-07
2	1	0	1	0	4.3265	0.117833	0.117715	0.00177934	1	3.19242e-06	2.09455e-07
2	1	0	1	0	4.4265	0.122833	0.122765	0.00171725	1	3.36761e-06	2.10818e-07
2	1	0	1	0	4.5265	0.127833	0.127682	0.00166042	1	3.53678e-06	2.12005e-07
2	1	0	1	0	4.6265	0.132833	0.132682	0.00160649	1	3.70034e-06	2.13152e-07
2	1	0	1	0	4.7265	0.137833	0.137753	0.00155657	1	3.85873e-06	2.14422e-07
2	1	0	1	0	4.8265	0.142833	0.142741	0.00150998	1	4.01243e-06	2.15536e-07
2	1	0	1	0	4.9265	0.147834	0.147721	0.00147029	1	4.16178e-06	2.17192e-07
2	1	0	1	0	5.0265	0.152834	0.152719	0.00143757	1	4.30722e-06	2.19544e-07
2	1	0	1	0	5.1265	0.157834	0.157835	0.00139782	1	4.44913e-06	2.20625e-07
2	1	0	1	0	5.2265	0.162834	0.162739	0.00136744	1	4.58776e-06	2.22536e-07
2	1	0	1	0	5.3265	0.167834	0.167776	0.00133885	1	4.72343e-06	2.24626e-07
2	1	0	1	0	5.4265	0.172834	0.172786	0.0013122	1	4.85635e-06	2.26729e-07
2	1	0	1	0	5.5265	0.177835	0.177775	0.00128754	1	4.98672e-06	2.28892e-07
2	1	0	1	0	5.6265	0.182835	0.182731	0.00126435	1	5.11475e-06	2.31037e-07
2	1	0	0	0	5.7267	0.187835	0.18777	0.00124329	1	5.24085e-06	2.33452e-07
2	1	0	0	0	5.8267	0.192835	0.192783	0.00122705	1	5.3647e-06	2.36555e-07
2	1	0	0	0	5.9267	0.197835	0.197741	0.0012083	1	5.4867e-06	2.38932e-07
2	1	0	0	0	6.0267	0.202835	0.202725	0.00119078	1	5.60702e-06	2.41402e-07
2	1	0	0	0	6.1267	0.207836	0.207738	0.00117655	1	5.72581e-06	2.44415e-07
2	1	0	0	0	6.2267	0.212836	0.212729	0.00116312	1	5.84315e-06	2.4743e-07
2	1	0	0	0	6.3267	0.217836	0.217726	0.00114787	1	5.95915e-06	2.4992e-07
2	1	0	0	0	6.4267	0.222836	0.22275	0.00113596	1	6.0739e-06	2.53036e-07
2	1	0	0	0	6.5267	0.227836	0.227747	0.00112523	1	6.18746e-06	2.56269e-07
2	1	0	0	0	6.6267	0.232837	0.232678	0.00111401	1	6.29995e-06	2.59207e-07
2	1	0	0	0	6.7267	0.237837	0.237731	0.00110579	1	6.41138e-06	2.62882e-07
2	1	0	0	0	6.8267	0.242837	0.242747	0.00109489	1	6.52184e-06	2.65781e-07
2	1	0	0	0	6.9267	0.247837	0.247735	0.00108777	1	6.6314e-06	2.69478e-07
2	1	0	0	0	7.0267	0.252837	0.252707	0.00107924	1	6.74009e-06	2.72732e-07
2	1	0	0	0	7.1267	0.257837	0.257765	0.00107208	1	6.84806e-06	2.76344e-07
2	1	0	0	0	7.2267	0.262838	0.262756	0.00106454	1	6.95528e-06	2.79714e-07
2	1	0	0	0	7.3267	0.267838	0.267701	0.00106013	1	7.06187e-06	2.83797e-07
2	1	0	0	0	7.4267	0.272838	0.272741	0.00105546	1	7.16788e-06	2.87868e-07
2	1	0	0	0	7.5267	0.277838	0.277703	0.0010487	1	7.27335e-06	2.91228e-07
2	1	0	0	0	7.6267	0.282838	0.282725	0.00104384	1	7.37837e-06	2.95121e-07
2	1	0	0	0	7.7267	0.287838	0.287774	0.00103892	1	7.48292e-06	2.98974e-07
2	1	0	0	0	7.8267	0.292839	0.292726	0.00103622	1	7.5871e-06	3.0333e-07
2	1	0	0	0	7.9267	0.297839	0.297773	0.00103217	1	7.69094e-06	3.07351e-07
2	0	0	1	0	8.0061	0.298189	0.29806	0.000896209	1	7.76869e-06	2.67124e-07
2	0	0	1	0	8.1061	0.293189	0.293131	0.000846625	1	7.85535e-06	2.48172e-07
2	0	0	1	0	8.2061	0.288188	0.28804	0.000810832	1	7.93783e-06	2.33552e-07
2	0	0	1	0	8.3061	0.283188	0.283092	0.000781468	1	8.0172e-06	2.21227e-07
2	0	0	1	0	8.4061	0.278188	0.278012	0.000762097	1	8.0941e-06	2.11872e-07
2	0	0	1	0	8.5061	0.273188	0.273025	0.000747721	1	8.16934e-06	2.04147e-07
2	0	0	1	0	8.6061	0.268188	0.268044	0.000725003	1	8.24277e-06	1.94332e-07
2	0	0	1	0	8.7061	0.263188	0.263066	0.000705944	1	8.31406e-06	1.8571e-07
2	0	0	1	0	8.8061	0.258187	0.258055	0.00069492	1	8.38367e-06	1.79328e-07
2	0	0	1	0	8.9061	0.253187	0.253022	0.000678881	1	8.45184e-06	1.71772e-07
2	0	0	1	0	9.0061	0.248187	0.248055	0.00066627	1	8.5188e-06	1.65272e-07
2	0	0	1	0	9.1061	0.243187	0.242976	0.000653554	1	8.58459e-06	1.58798e-07
2	0	0	1	0	9.2061	0.238187	0.238039	0.00064265	1	8.64928e-06	1.52976e-07
2	0	0	1	0	9.3061	0.233187	0.232993	0.00063323	1	8.71293e-06	1.47538e-07
2	0	0	1	0	9.4061	0.228186	0.228058	0.000623656	1	8.77559e-06	1.4223e-07
2	0	0	1	0	9.5061	0.223186	0.223026	0.000614291	1	8.83732e-06	1.37003e-07
2	0	0	1	0	9.6061	0.218186	0.218064	0.000604051	1	8.89813e-06	1.31722e-07
2	0	0	1	0	9.7061	0.213186	0.213057	0.000596263	1	8.95803e-06	1.27038e-07
2	0	0	1	0	9.8061	0.208186	0.208095	0.000588558	1	9.01707e-06	1.22476e-07
2	0	0	1	0	9.9061	0.203186	0.203029	0.000578839	1	9.07524e-06	1.17521e-07
2	0	0	1	0	10.0061	0.198185	0.198071	0.000570442	1	9.13256e-06	1.12988e-07
2	0	0	1	0	10.1061	0.193185	0.19304	0.00056271	1	9.18905e-06	1.08625e-07
2	0	0	1	0	10.2061	0.188185	0.188013	0.00055486	1	9.24468e-06	1.04321e-07
2	0	0	0	0	10.3063	0.183185	0.183003	0.000545115	1	9.29959e-06	9.97575e-08
2	0	0	0	0	10.4063	0.178185	0.178032	0.000535615	1	9.35349e-06	9.53565e-08
2	0	0	0	0	10.5063	0.173184	0.173077	0.00052894	1	9.40658e-06	9.15472e-08
2	0	0	0	0	10.6063	0.168184	0.168093	0.000519322	1	9.4588e-06	8.72944e-08
2	0	0	0	0	10.7063	0.163184	0.163034	0.000509773	1	9.51009e-06	8.31104e-08
2	0	0	0	0	10.8063	0.158184	0.158056	0.000500715	1	9.56044e-06	7.91409e-08
2	0	0	0	0	10.9063	0.153184	0.153099	0.000492109	1	9.60989e-06	7.53412e-08
2	0	0	0	0	11.0063	0.148184	0.148091	0.000481961	1	9.65828e-06	7.13739e-08
2	0	0	0	0	11.1063	0.143183	0.143105	0.000469812	1	9.70555e-06	6.72323e-08
2	0	0	0	0	11.2063	0.138183	0.138048	0.000456484	1	9.75162e-06	6.30168e-08
2	0	0	0	0	11.3063	0.133183	0.133034	0.000442936	1	9.79637e-06	5.89254e-08
2	0	0	0	0	11.4063	0.128183	0.128069	0.000426374	1	9.83964e-06	5.46054e-08
2	0	0	0	0	11.5063	0.123183	0.123016	0.000408391	1	9.88116e-06	5.02388e-08
2	0	0	0	0	11.6063	0.118183	0.118097	0.000386585	1	9.92066e-06	4.56547e-08
2	0	0	0	0	11.7063	0.113182	0.113018	0.000359483	1	9.95774e-06	4.06282e-08
2	0	0	0	0	11.8063	0.108182	0.10809	0.000328218	1	9.99195e-06	3.5477e-08
2	0	0	0	0	11.9063	0.103182	0.103052	0.000287059	1	1.00226e-05	2.9582e-08
2	0	0	0	0	12.0063	0.0981819	0.0980877	0.000240603	1	1.00489e-05	2.36001e-08
2	0	0	0	0	12.1063	0.0931817	0.0930987	0.000180008	1	1.00698e-05	1.67585e-08
2	0	0	0	0	12.2063	0.0881815	0.0880303	0.000104719	1	1.0084e-05	9.21845e-09
2	0	0	0	0	12.3063	0.0831814	0.0830328	1.30537e-05	1	1.00898e-05	1.08389e-09
2	0	0	0	0	12.4063	0.0781812	0.078082	-9.99373e-05	1	1.00854e-05	-7.80331e-09
2	0	0	0	0	12.5063	0.073181	0.0730814	-0.000235674	1	1.00686e-05	-1.72234e-08
2	0	0	0	0	12.6063	0.0681808	0.0681338	-0.000391129	1	1.0037e-05	-2.66492e-08
2	0	0	0	0	12.7063	0.0631807	0.0631057	-0.000572731	1	9.98873e-06	-3.61426e-08
2	0	0	0	0	12.8063	0.0581805	0.0580234	-0.000768267	1	9.92163e-06	-4.45775e-08
2	0	0	0	0	12.9063	0.0531803	0.0530992	-0.000967464	1	9.83473e-06	-5.13715e-08
2	0	0	0	0	13.0063	0.0481801	0.0480402	-0.00116209	1	9.72792e-06	-5.5827e-08
2	0	0	0	0	13.1063	0.04318	0.0430481	-0.00133346	1	9.60268e-06	-5.74028e-08
2	0	0	0	0	13.2063	0.0381798	0.0380719	-0.00147066	1	9.46181e-06	-5.59908e-08
2	0	0	0	0	13.3063	0.0331796	0.0330755	-0.00156659	1	9.30918e-06	-5.18157e-08
2	0	0	0	0	13.4063	0.0281795	0.0281194	-0.0016149	1	9.14941e-06	-4.54101e-08
2	0	0	0	0	13.5063	0.0231793	0.0230022	-0.00162177	1	8.98707e-06	-3.73043e-08
2	0	0	0	0	13.6063	0.0181791	0.0181034	-0.00158763	1	8.82617e-06	-2.87415e-08
2	0	0	0	0	13.7063	0.0131789	0.013018	-0.00153031	1	8.66983e-06	-1.99215e-08
2	0	0	0	0	13.8063	0.00817876	0.00810854	-0.00145853	1	8.52007e-06	-1.18265e-08
2	0	0	0	0	13.9063	0.00317859	0.00304114	-0.00137945	1	8.37803e-06	-4.1951e-09
2	0	0	0	0	14.0063	-0.00182158	-0.0019372	-0.0012991	1	8.24404e-06	2.51661e-09
2	0	0	0	0	14.1063	-0.00682176	-0.00694735	-0.00122055	1	8.11803e-06	8.47957e-09
2	0	0	0	0	14.2063	-0.0118219	-0.0119183	-0.00114631	1	7.99961e-06	1.3662e-08
2	0	0	0	0	14.3063	-0.0168221	-0.016957	-0.00107963	1	7.88815e-06	1.83074e-08
2	0	0	0	0	14.4063	-0.0218223	-0.0219524	-0.00102048	1	7.78303e-06	2.2402e-08
2	0	0	0	0	14.5063	-0.0268225	-0.0269296	-0.000965648	1	7.68361e-06	2.60046e-08
2	0	0	0	0	14.6063	-0.0318226	-0.0319748	-0.000917766	1	7.58931e-06	2.93454e-08
2	0	0	0	0	14.7063	-0.0368228	-0.0369552	-0.000873702	1	7.49958e-06	3.22879e-08
2	0	0	0	0	14.8063	-0.041823	-0.0419686	-0.000836244	1	7.41394e-06	3.50959e-08
2	0	0	0	0	14.9063	-0.0468232	-0.0469024	-0.000801371	1	7.33201e-06	3.75862e-08
2	0	0	0	0	15.0063	-0.0518233	-0.0520239	-0.000767813	1	7.25342e-06	3.99446e-08
2	0	0	0	0	15.1063	-0.0568235	-0.0569492	-0.000740922	1	7.17779e-06	4.21949e-08
2	0	0	0	0	15.2063	-0.0618237	-0.0619551	-0.00071237	1	7.10496e-06	4.4135e-08
2	0	0	0	0	15.3063	-0.0668239	-0.0669706	-0.000690101	1	7.03461e-06	4.62164e-08
2	0	0	0	0	15.4063	-0.071824	-0.0719892	-0.000667291	1	6.96659e-06	4.80378e-08
2	0	0	0	0	15.5063	-0.0768242	-0.076993	-0.000646598	1	6.90069e-06	4.97835e-08
2	0	0	0	0	15.6063	-0.0818244	-0.0819215	-0.000628325	1	6.83672e-06	5.14733e-08
2	0	0	0	0	15.7063	-0.0868246	-0.0869762	-0.000610509	1	6.77456e-06	5.30997e-08
2	0	0	0	0	15.8063	-0.0918247	-0.0918994	-0.000595708	1	6.71408e-06	5.47452e-08
2	0	0	0	0	15.9063	-0.0968249	-0.096918	-0.000581358	1	6.65515e-06	5.63441e-08
2	0	0	1	0	16.0065	-0.101825	-0.101949	-0.000566149	1	6.59758e-06	5.77186e-08
2	0	0	1	0	16.1065	-0.106825	-0.106925	-0.000554224	1	6.54145e-06	5.92602e-08
2	0	0	1	0	16.2065	-0.111825	-0.111947	-0.000541289	1	6.48657e-06	6.05959e-08
2	0	0	1	0	16.3065	-0.116826	-0.116946	-0.000529518	1	6.43287e-06	6.19249e-08
2	0	0	1	0	16.4065	-0.121826	-0.122006	-0.000519524	1	6.38027e-06	6.33849e-08
2	0	0	1	0	16.5065	-0.126826	-0.126913	-0.000509762	1	6.3287e-06	6.46956e-08
2	0	0	1	0	16.6065	-0.131826	-0.131934	-0.000499099	1	6.2781e-06	6.58481e-08
2	0	0	1	0	16.7065	-0.136826	-0.136984	-0.000492033	1	6.22844e-06	6.74008e-08
2	0	0	1	0	16.8065	-0.141826	-0.141915	-0.00048363	1	6.17964e-06	6.86344e-08
2	0	0	1	0	16.9065	-0.146827	-0.146938	-0.000473062	1	6.13165e-06	6.95107e-08
2	0	0	1	0	17.0065	-0.151827	-0.151895	-0.000466661	1	6.08447e-06	7.08834e-08
2	0	0	1	0	17.1065	-0.156827	-0.157002	-0.000459369	1	6.03797e-06	7.21217e-08
2	0	0	1	0	17.2065	-0.161827	-0.161909	-0.000453612	1	5.9922e-06	7.34439e-08
2	0	0	1	0	17.3065	-0.166827	-0.166976	-0.000445716	1	5.94707e-06	7.44241e-08
2	0	0	1	0	17.4065	-0.171828	-0.171967	-0.000440636	1	5.90254e-06	7.57751e-08
2	0	0	1	0	17.5065	-0.176828	-0.176902	-0.000434676	1	5.85857e-06	7.68953e-08
2	0	0	1	0	17.6065	-0.181828	-0.18194	-0.000431296	1	5.81511e-06	7.84699e-08
2	0	0	1	0	17.7065	-0.186828	-0.18694	-0.00042595	1	5.77213e-06	7.9627e-08
2	0	0	1	0	17.8065	-0.191828	-0.19199	-0.0004209	1	5.72959e-06	8.08087e-08
2	0	0	1	0	17.9065	-0.196828	-0.196951	-0.000418406	1	5.68742e-06	8.24057e-08
2	1	0	0	1	17.9959	-0.198728	-0.198813	-0.000297256	1	5.65296e-06	5.90984e-08
2	1	0	0	1	18.0959	-0.193728	-0.193834	-0.000265682	1	5.62531e-06	5.14981e-08
2	1	0	0	1	18.1959	-0.188728	-0.188833	-0.000248565	1	5.59994e-06	4.69373e-08
2	1	0	0	1	18.2959	-0.183728	-0.183854	-0.000234139	1	5.57617e-06	4.30473e-08
2	1	0	0	1	18.3959	-0.178728	-0.178839	-0.000222725	1	5.55369e-06	3.98319e-08
2	1	0	0	1	18.4959	-0.173728	-0.173768	-0.000209166	1	5.53232e-06	3.63463e-08
2	1	0	0	1	18.5959	-0.168727	-0.168774	-0.000202445	1	5.51194e-06	3.41675e-08
2	1	0	0	1	18.6959	-0.163727	-0.163761	-0.000194694	1	5.49248e-06	3.18833e-08
2	1	0	0	1	18.7959	-0.158727	-0.158804	-0.0001863	1	5.47385e-06	2.95852e-08
2	1	0	0	1	18.8959	-0.153727	-0.153753	-0.000178478	1	5.45599e-06	2.74417e-08
2	1	0	0	1	18.9959	-0.148727	-0.148832	-0.000171858	1	5.43883e-06	2.5578e-08
2	1	0	0	1	19.0959	-0.143727	-0.143831	-0.000166175	1	5.42234e-06	2.39011e-08
2	1	0	0	1	19.1959	-0.138726	-0.138813	-0.00016003	1	5.40649e-06	2.22143e-08
2	1	0	0	1	19.2959	-0.133726	-0.13385	-0.000150868	1	5.39124e-06	2.01936e-08
2	1	0	0	1	19.3959	-0.128726	-0.128824	-0.000147252	1	5.37656e-06	1.89695e-08
2	1	0	0	1	19.4959	-0.123726	-0.123756	-0.000143316	1	5.36243e-06	1.77363e-08
2	1	0	0	1	19.5959	-0.118726	-0.118819	-0.000137097	1	5.3488e-06	1.62897e-08
2	1	0	0	1	19.6959	-0.113725	-0.113794	-0.000132642	1	5.33569e-06	1.50939e-08
2	1	0	0	1	19.7959	-0.108725	-0.108785	-0.000128348	1	5.32303e-06	1.39623e-08
2	1	0	0	1	19.8959	-0.103725	-0.103819	-0.000125389	1	5.31082e-06	1.30178e-08
2	1	0	0	1	19.996	-0.098725	-0.0988274	-0.000119496	2	5.29902e-06	1.18095e-08
2	1	0	1	1	20.0961	-0.0937248	-0.0938627	-0.000117331	2	5.28765e-06	1.1013e-08
2	1	0	1	1	20.1961	-0.0887246	-0.0888176	-0.000109993	2	5.27671e-06	9.76935e-09
2	1	0	1	1	20.2961	-0.0837245	-0.0838859	-0.000106786	2	5.26615e-06	8.95781e-09
2	1	0	1	1	20.3961	-0.0787243	-0.0788927	-0.00010273	2	5.25598e-06	8.10465e-09
2	1	0	1	1	20.4961	-0.0737241	-0.0737935	-9.7694e-05	2	5.24621e-06	7.20918e-09
2	1	0	1	1	20.5961	-0.0687239	-0.0688268	-9.48554e-05	2	5.23681e-06	6.5286e-09
2	1	0	1	1	20.6961	-0.0637238	-0.0638029	-9.08015e-05	2	5.22781e-06	5.7934e-09
2	1	0	1	1	20.7961	-0.0587236	-0.05892	-8.67653e-05	2	5.21918e-06	5.11221e-09
2	1	0	1	1	20.8961	-0.0537234	-0.0538505	-8.29552e-05	2	5.21096e-06	4.46717e-09
2	1	0	1	1	20.9961	-0.0487232	-0.0488615	-7.94259e-05	2	5.2032e-06	3.88087e-09
2	1	0	1	1	21.0961	-0.0437231	-0.0437803	-7.44782e-05	2	5.19585e-06	3.26068e-09
2	1	0	1	1	21.1961	-0.0387229	-0.0387511	-6.83453e-05	2	5.18899e-06	2.64846e-09
2	1	0	1	1	21.2961	-0.0337227	-0.0338077	-6.28889e-05	2	5.18266e-06	2.12613e-09
2	1	0	1	1	21.3961	-0.0287225	-0.0288029	-5.81709e-05	2	5.17693e-06	1.67549e-09
2	1	0	1	1	21.4961	-0.0237223	-0.0237927	-4.85493e-05	2	5.17195e-06	1.15512e-09
2	1	0	1	1	21.5961	-0.0187222	-0.0188239	-3.92775e-05	2	5.16781e-06	7.39357e-10
2	1	0	1	1	21.6961	-0.013722	-0.0138668	-2.53936e-05	2	5.16472e-06	3.52128e-10
2	1	0	1	1	21.7961	-0.00872183	-0.00885664	-1.07025e-05	2	5.16296e-06	9.47883e-11
2	1	0	1	1	21.8961	-0.00372165	-0.00376698	5.73733e-06	2	5.1629e-06	-2.16124e-11
2	1	0	1	1	21.9961	0.00127852	0.00123787	3.14437e-05	2	5.16509e-06	3.89233e-11
2	1	0	1	1	22.0961	0.0062787	0.0062194	6.46254e-05	2	5.17008e-06	4.01931e-10
2	1	0	1	1	22.1961	0.0112789	0.011184	0.000105129	2	5.17878e-06	1.17576e-09
2	1	0	1	1	22.2961	0.016279	0.0162365	0.000160013	2	5.19228e-06	2.59805e-09
2	1	0	1	1	22.3961	0.0212792	0.021235	0.000229167	2	5.21195e-06	4.86636e-09
2	1	0	1	1	22.4961	0.0262794	0.0262441	0.000318697	2	5.23946e-06	8.36391e-09
2	1	0	1	1	22.5961	0.0312796	0.0311715	0.000424707	2	5.2767e-06	1.32388e-08
2	1	0	1	1	22.6961	0.0362797	0.0362442	0.000553656	2	5.32579e-06	2.00668e-08
2	1	0	1	1	22.7961	0.0412799	0.0411653	0.000705218	2	5.38896e-06	2.90305e-08
2	1	0	1	1	22.8961	0.0462801	0.0461532	0.000874553	2	5.46814e-06	4.03634e-08
2	1	0	1	1	22.9961	0.0512802	0.0512026	0.00105902	2	5.56505e-06	5.42244e-08
2	1	0	1	1	23.0961	0.0562804	0.0562477	0.00124457	2	5.68058e-06	7.00045e-08
2	1	0	1	1	23.1961	0.0612806	0.0612918	0.00142485	2	5.81453e-06	8.73319e-08
2	1	0	1	1	23.2961	0.0662808	0.0662373	0.00158801	2	5.96582e-06	1.05186e-07
2	1	0	1	1	23.3961	0.0712809	0.0712071	0.00172732	2	6.13215e-06	1.22997e-07
2	1	0	1	1	23.4961	0.0762811	0.0762533	0.0018285	2	6.31053e-06	1.39429e-07
2	1	0	1	1	23.5961	0.0812813	0.0811808	0.00189606	2	6.49737e-06	1.53924e-07
2	1	0	1	1	23.6961	0.0862815	0.0861825	0.00192507	2	6.68899e-06	1.65907e-07
2	1	0	1	1	23.7961	0.0912816	0.0912149	0.00192435	2	6.88205e-06	1.75529e-07
2	1	0	1	1	23.8961	0.0962818	0.0962006	0.00189914	2	7.07372e-06	1.82698e-07
2	1	0	1	1	23.9961	0.101282	0.101189	0.00185554	2	7.26188e-06	1.87759e-07
2	1	0	1	1	24.0961	0.106282	0.106219	0.00180135	2	7.44505e-06	1.91338e-07
2	1	0	1	1	24.1961	0.111282	0.11119	0.00173865	2	7.62244e-06	1.9332e-07
2	1	0	1	1	24.2961	0.116283	0.116199	0.00167727	2	7.79363e-06	1.94896e-07
2	1	0	1	1	24.3961	0.121283	0.121197	0.00161629	2	7.95858e-06	1.9589e-07
2	1	0	1	1	24.4961	0.126283	0.126157	0.00155588	2	8.11747e-06	1.96285e-07
2	1	0	1	1	24.5961	0.131283	0.13122	0.00150047	2	8.27061e-06	1.96892e-07
2	1	0	1	1	24.6961	0.136283	0.136178	0.00144765	2	8.41836e-06	1.97137e-07
2	1	0	1	1	24.7961	0.141283	0.141166	0.00140176	2	8.56114e-06	1.97881e-07
2	1	0	1	1	24.8961	0.146284	0.146218	0.00135712	2	8.69934e-06	1.98436e-07
2	1	0	1	1	24.9961	0.151284	0.151167	0.00131886	2	8.83336e-06	1.99368e-07
2	1	0	1	1	25.0961	0.156284	0.156242	0.00128055	2	8.96362e-06	2.00075e-07
2	1	0	1	1	25.1961	0.161284	0.16118	0.0012481	2	9.09036e-06	2.01169e-07
2	1	0	1	1	25.2961	0.166284	0.166191	0.00121807	2	9.21392e-06	2.02433e-07
2	1	0	1	1	25.3961	0.171284	0.171201	0.00118952	2	9.33454e-06	2.03648e-07
2	1	0	1	1	25.4961	0.176285	0.176188	0.00116398	2	9.45245e-06	2.0508e-07
2	1	0	1	1	25.5961	0.181285	0.181216	0.00113938	2	9.56788e-06	2.06474e-07
2	1	0	1	1	25.6961	0.186285	0.186162	0.00111751	2	9.68098e-06	2.08038e-07
2	1	0	0	1	25.7963	0.191285	0.191175	0.00109845	2	9.79215e-06	2.09997e-07
2	1	0	0	1	25.8963	0.196285	0.19616	0.00107778	2	9.90114e-06	2.11418e-07
2	1	0	0	1	25.9963	0.201285	0.201197	0.00105923	2	1.00083e-05	2.13115e-07
2	1	0	0	1	26.0963	0.206286	0.206208	0.00104453	2	1.01138e-05	2.1539e-07
2	1	0	0	1	26.1963	0.211286	0.211138	0.00102897	2	1.02178e-05	2.17254e-07
2	1	0	0	1	26.2963	0.216286	0.216183	0.00101555	2	1.03203e-05	2.19545e-07
2	1	0	0	1	26.3963	0.221286	0.221249	0.00100232	2	1.04215e-05	2.21762e-07
2	1	0	0	1	26.4963	0.226286	0.226138	0.000990867	2	1.05214e-05	2.24073e-07
2	1	0	0	1	26.5963	0.231286	0.231154	0.000979417	2	1.06201e-05	2.26397e-07
2	1	0	0	1	26.6963	0.236287	0.236201	0.000967934	2	1.07177e-05	2.28627e-07
2	1	0	0	1	26.7963	0.241287	0.241203	0.000957047	2	1.08141e-05	2.30843e-07
2	1	0	0	1	26.8963	0.246287	0.246102	0.000948578	2	1.09096e-05	2.33447e-07
2	1	0	0	1	26.9963	0.251287	0.251173	0.000939974	2	1.10042e-05	2.36096e-07
2	1	0	0	1	27.0963	0.256287	0.256205	0.000930271	2	1.1098e-05	2.3834e-07
2	1	0	0	1	27.1963	0.261288	0.261203	0.000923385	2	1.11909e-05	2.41191e-07
2	1	0	0	1	27.2963	0.266288	0.266272	0.000917618	2	1.12832e-05	2.44336e-07
2	1	0	0	1	27.3963	0.271288	0.27119	0.000910371	2	1.13748e-05	2.46883e-07
2	1	0	0	1	27.4963	0.276288	0.276214	0.000905433	2	1.14659e-05	2.50093e-07
2	1	0	0	1	27.5963	0.281288	0.281159	0.000901639	2	1.15566e-05	2.53504e-07
2	1	0	0	1	27.6963	0.286288	0.286169	0.000898234	2	1.16468e-05	2.57046e-07
2	1	0	0	1	27.7963	0.291289	0.291203	0.00089507	2	1.17368e-05	2.60647e-07
2	1	0	0	1	27.8963	0.296289	0.296171	0.000892917	2	1.18265e-05	2.64456e-07
2	0	0	0	1	27.9767	0.299689	0.299569	0.00078947	2	1.18978e-05	2.365e-07
2	0	0	0	1	28.0767	0.294689	0.294489	0.00073351	2	1.19731e-05	2.16011e-07
2	0	0	0	1	28.1767	0.289688	0.289573	0.000703893	2	1.20445e-05	2.03828e-07
2	0	0	0	1	28.2767	0.284688	0.284568	0.000680303	2	1.21134e-05	1.93592e-07
2	0	0	0	1	28.3767	0.279688	0.27956	0.000661358	2	1.21803e-05	1.84889e-07
2	0	0	0	1	28.4767	0.274688	0.274462	0.000645906	2	1.22454e-05	1.77276e-07
2	0	0	0	1	28.5767	0.269688	0.269596	0.000630891	2	1.23089e-05	1.70086e-07
2	0	0	0	1	28.6767	0.264688	0.264574	0.000618232	2	1.23711e-05	1.63568e-07
2	0	0	0	1	28.7767	0.259687	0.259557	0.000604408	2	1.24321e-05	1.56878e-07
2	0	0	0	1	28.8767	0.254687	0.25454	0.000594862	2	1.24919e-05	1.51416e-07
2	0	0	0	1	28.9767	0.249687	0.249569	0.000584379	2	1.25506e-05	1.45843e-07
2	0	0	0	1	29.0767	0.244687	0.24455	0.000575386	2	1.26084e-05	1.40711e-07
2	0	0	0	1	29.1767	0.239687	0.239529	0.000564261	2	1.26652e-05	1.35157e-07
2	0	0	0	1	29.2767	0.234687	0.23459	0.000556874	2	1.27211e-05	1.30637e-07
2	0	0	0	1	29.3767	0.229686	0.229558	0.000547791	2	1.27762e-05	1.2575e-07
2	0	0	0	1	29.4767	0.224686	0.224497	0.00053965	2	1.28305e-05	1.2115e-07
2	0	0	0	1	29.5767	0.219686	0.219599	0.000532961	2	1.28839e-05	1.17038e-07
2	0	0	0	1	29.6767	0.214686	0.214534	0.000525508	2	1.29365e-05	1.12739e-07
2	0	0	0	1	29.7767	0.209686	0.209598	0.00051636	2	1.29884e-05	1.08228e-07
2	0	0	0	1	29.8767	0.204686	0.204531	0.000509372	2	1.30395e-05	1.04182e-07
2	0	0	0	1	29.9767	0.199685	0.199566	0.000501022	2	1.30899e-05	9.9987e-08
2	0	0	0	1	30.0767	0.194685	0.194513	0.00049351	2	1.31395e-05	9.59943e-08
2	0	0	0	1	30.1767	0.189685	0.189591	0.000485418	2	1.31883e-05	9.2031e-08
2	0	0	1	1	30.2769	0.184685	0.184555	0.00047917	2	1.32365e-05	8.84331e-08
2	0	0	1	1	30.3769	0.179685	0.179551	0.000471004	2	1.32839e-05	8.45692e-08
2	0	0	1	1	30.4769	0.174684	0.174531	0.000462282	2	1.33304e-05	8.06825e-08
2	0	0	1	1	30.5769	0.169684	0.169526	0.000456357	2	1.33762e-05	7.73645e-08
2	0	0	1	1	30.6769	0.164684	0.164567	0.000445478	2	1.34211e-05	7.3311e-08
2	0	0	1	1	30.7769	0.159684	0.159529	0.000438677	2	1.34652e-05	6.99819e-08
2	0	0	1	1	30.8769	0.154684	0.154551	0.000429171	2	1.35085e-05	6.63287e-08
2	0	0	1	1	30.9769	0.149684	0.149497	0.000421293	2	1.35508e-05	6.29821e-08
2	0	0	1	1	31.0769	0.144683	0.144495	0.000408659	2	1.35921e-05	5.90491e-08
2	0	0	1	1	31.1769	0.139683	0.139555	0.000398291	2	1.36323e-05	5.55836e-08
2	0	0	1	1	31.2769	0.134683	0.134544	0.00038565	2	1.36714e-05	5.1887e-08
2	0	0	1	1	31.3769	0.129683	0.12955	0.000371448	2	1.37091e-05	4.81212e-08
2	0	0	1	1	31.4769	0.124683	0.124564	0.000353852	2	1.37453e-05	4.40773e-08
2	0	0	1	1	31.5769	0.119683	0.119571	0.00033496	2	1.37796e-05	4.00515e-08
2	0	0	1	1	31.6769	0.114682	0.114546	0.000311961	2	1.38119e-05	3.5734e-08
2	0	0	1	1	31.7769	0.109682	0.109605	0.000282547	2	1.38415e-05	3.09686e-08
2	0	0	1	1	31.8769	0.104682	0.104526	0.000250286	2	1.3868e-05	2.61613e-08
2	0	0	1	1	31.9769	0.0996819	0.0995909	0.000205079	2	1.38907e-05	2.0424e-08
2	0	0	1	1	32.0769	0.0946818	0.0945606	0.000153604	2	1.39086e-05	1.45249e-08
2	0	0	1	1	32.1769	0.0896816	0.0896141	8.69615e-05	2	1.39205e-05	7.79298e-09
2	0	0	1	1	32.2769	0.0846814	0.0845637	4.93185e-06	2	1.3925e-05	4.17055e-10
2	0	0	1	1	32.3769	0.0796812	0.079616	-9.60813e-05	2	1.39204e-05	-7.64961e-09
2	0	0	1	1	32.4769	0.0746811	0.0745529	-0.000216712	2	1.39048e-05	-1.61565e-08
2	0	0	1	1	32.5769	0.0696809	0.0695735	-0.000360467	2	1.38759e-05	-2.50789e-08
2	0	0	1	1	32.6769	0.0646807	0.0645782	-0.000526211	2	1.38316e-05	-3.39818e-08
2	0	0	1	1	32.7769	0.0596805	0.0595638	-0.00070729	2	1.37698e-05	-4.21289e-08
2	0	0	1	1	32.8769	0.0546804	0.0546279	-0.000900136	2	1.36892e-05	-4.91725e-08
2	0	0	1	1	32.9769	0.0496802	0.0495562	-0.00109879	2	1.3589e-05	-5.44518e-08
2	0	0	1	1	33.0769	0.04468	0.044597	-0.0012802	2	1.34698e-05	-5.70932e-08
2	0	0	1	1	33.1769	0.0396799	0.0395995	-0.00143569	2	1.33336e-05	-5.68528e-08
2	0	0	1	1	33.2769	0.0346797	0.0345396	-0.00155456	2	1.31835e-05	-5.36938e-08
2	0	0	1	1	33.3769	0.0296795	0.0295739	-0.00162985	2	1.30238e-05	-4.82011e-08
2	0	0	1	1	33.4769	0.0246793	0.024567	-0.00166278	2	1.28587e-05	-4.08496e-08
2	0	0	1	1	33.5769	0.0196792	0.0195547	-0.00165184	2	1.26926e-05	-3.23012e-08
2	0	0	1	1	33.6769	0.014679	0.0145064	-0.00161108	2	1.25292e-05	-2.33709e-08
2	0	0	1	1	33.7769	0.00967881	0.00957575	-0.00154912	2	1.23709e-05	-1.4834e-08
2	0	0	1	1	33.8769	0.00467864	0.0045709	-0.00147428	2	1.22196e-05	-6.73878e-09
2	0	0	1	1	33.9769	-0.000321532	-0.000428642	-0.00139395	2	1.20761e-05	5.97507e-10
2	0	0	1	1	34.0769	-0.00532171	-0.00547378	-0.00131441	2	1.19404e-05	7.1948e-09
2	0	0	1	1	34.1769	-0.0103219	-0.0104458	-0.00124043	2	1.18124e-05	1.29573e-08
2	0	0	1	1	34.2769	-0.0153221	-0.0154771	-0.00117171	2	1.16917e-05	1.81347e-08
2	0	0	1	1	34.3769	-0.0203222	-0.0204979	-0.00110785	2	1.15777e-05	2.27086e-08
2	0	0	1	1	34.4769	-0.0253224	-0.0254465	-0.00104925	2	1.14697e-05	2.66997e-08
2	0	0	1	1	34.5769	-0.0303226	-0.0304546	-0.000999153	2	1.13671e-05	3.04288e-08
2	0	0	1	1	34.6769	-0.0353228	-0.0354626	-0.000950773	2	1.12694e-05	3.37169e-08
2	0	0	1	1	34.7769	-0.0403229	-0.0404674	-0.000909468	2	1.11761e-05	3.68038e-08
2	0	0	1	1	34.8769	-0.0453231	-0.0454882	-0.000873092	2	1.10868e-05	3.97154e-08
2	0	0	1	1	34.9769	-0.0503233	-0.0504231	-0.000838575	2	1.1001e-05	4.22835e-08
2	0	0	1	1	35.0769	-0.0553235	-0.055429	-0.000807953	2	1.09183e-05	4.4784e-08
2	0	0	1	1	35.1769	-0.0603236	-0.0604784	-0.000780337	2	1.08387e-05	4.71935e-08
2	0	0	1	1	35.2769	-0.0653238	-0.0655086	-0.000754709	2	1.07617e-05	4.94399e-08
2	0	0	1	1	35.3769	-0.070324	-0.0704488	-0.000730332	2	1.06872e-05	5.14511e-08
2	0	0	1	1	35.4769	-0.0753242	-0.0754441	-0.000709642	2	1.0615e-05	5.35384e-08
2	0	0	1	1	35.5769	-0.0803243	-0.0804342	-0.000689689	2	1.05448e-05	5.54746e-08
2	0	0	1	1	35.6769	-0.0853245	-0.0854549	-0.000671169	2	1.04766e-05	5.73546e-08
2	0	0	1	1	35.7769	-0.0903247	-0.0904057	-0.0006534	2	1.04102e-05	5.90711e-08
2	0	0	1	1	35.8769	-0.0953249	-0.0954762	-0.000638068	2	1.03454e-05	6.09204e-08
2	0	0	0	1	35.9771	-0.100325	-0.100422	-0.000622125	2	1.02821e-05	6.24748e-08
2	0	0	0	1	36.0771	-0.105325	-0.105468	-0.000607896	2	1.02204e-05	6.41136e-08
2	0	0	0	1	36.1771	-0.110325	-0.110436	-0.000595766	2	1.016e-05	6.57939e-08
2	0	0	0	1	36.2771	-0.115326	-0.115426	-0.000583366	2	1.01008e-05	6.73355e-08
2	0	0	0	1	36.3771	-0.120326	-0.120476	-0.000572371	2	1.00428e-05	6.8957e-08
2	0	0	0	1	36.4771	-0.125326	-0.125418	-0.00056161	2	9.98595e-06	7.04362e-08
2	0	0	0	1	36.5771	-0.130326	-0.130399	-0.0005499	2	9.93013e-06	7.17064e-08
2	0	0	0	1	36.6771	-0.135326	-0.135432	-0.000541271	2	9.8753e-06	7.33057e-08
2	0	0	0	1	36.7771	-0.140326	-0.140375	-0.000531643	2	9.82143e-06	7.46292e-08
2	0	0	0	1	36.8771	-0.145327	-0.145407	-0.000521569	2	9.76845e-06	7.58398e-08
2	0	0	0	1	36.9771	-0.150327	-0.150481	-0.000513442	2	9.71634e-06	7.72632e-08
2	0	0	0	1	37.0771	-0.155327	-0.155466	-0.000506283	2	9.66502e-06	7.87095e-08
2	0	0	0	1	37.1771	-0.160327	-0.160475	-0.000498081	2	9.61451e-06	7.99294e-08
2	0	0	0	1	37.2771	-0.165327	-0.165441	-0.000491341	2	9.56471e-06	8.1288e-08
2	0	0	0	1	37.3771	-0.170327	-0.170455	-0.000484602	2	9.51557e-06	8.26026e-08
2	0	0	0	1	37.4771	-0.175328	-0.175435	-0.000479223	2	9.46707e-06	8.40726e-08
2	0	0	0	1	37.5771	-0.180328	-0.180412	-0.000474899	2	9.41916e-06	8.56777e-08
2	0	0	0	1	37.6771	-0.185328	-0.185481	-0.000469294	2	9.37179e-06	8.70451e-08
2	0	0	0	1	37.7771	-0.190328	-0.19047	-0.000462188	2	9.3249e-06	8.80329e-08
2	0	0	0	1	37.8771	-0.195328	-0.195373	-0.000460598	2	9.27846e-06	8.99884e-08
2	1	0	0	0	37.971	-0.200003	-0.200091	-0.000448209	2	9.23525e-06	8.96827e-08
2	1	0	1	0	38.0665	-0.195228	-0.195275	-0.000309684	2	9.20426e-06	6.04737e-08
2	1	0	1	0	38.1665	-0.190228	-0.190307	-0.000291026	2	9.17457e-06	5.53842e-08
2	1	0	1	0	38.2665	-0.185228	-0.185303	-0.000276059	2	9.14659e-06	5.11546e-08
2	1	0	1	0	38.3665	-0.180228	-0.180276	-0.000261674	2	9.12e-06	4.71734e-08
2	1	0	1	0	38.4665	-0.175228	-0.175331	-0.000251067	2	9.09461e-06	4.40198e-08
2	1	0	1	0	38.5665	-0.170227	-0.170313	-0.000241242	2	9.07026e-06	4.10865e-08
2	1	0	1	0	38.6665	-0.165227	-0.16534	-0.000231921	2	9.04687e-06	3.83456e-08
2	1	0	1	0	38.7665	-0.160227	-0.160282	-0.000223357	2	9.02434e-06	3.58001e-08
2	1	0	1	0	38.8665	-0.155227	-0.155276	-0.000215158	2	9.00263e-06	3.34088e-08
2	1	0	1	0	38.9665	-0.150227	-0.150279	-0.000209429	2	8.9817e-06	3.14729e-08
2	1	0	1	0	39.0665	-0.145227	-0.145264	-0.00020132	2	8.96147e-06	2.92445e-08
2	1	0	1	0	39.1665	-0.140226	-0.140284	-0.000194998	2	8.94191e-06	2.7355e-08
2	1	0	1	0	39.2665	-0.135226	-0.135296	-0.000189078	2	8.923e-06	2.55815e-08
2	1	0	1	0	39.3665	-0.130226	-0.130317	-0.000183557	2	8.9047e-06	2.39206e-08
2	1	0	1	0	39.4665	-0.125226	-0.125244	-0.000176986	2	8.88701e-06	2.21663e-08
2	1	0	1	0	39.5665	-0.120226	-0.120262	-0.000171764	2	8.86987e-06	2.06567e-08
2	1	0	1	0	39.6665	-0.115226	-0.115274	-0.000165236	2	8.85328e-06	1.90474e-08
2	1	0	1	0	39.7665	-0.110225	-0.110338	-0.000161659	2	8.83718e-06	1.78371e-08
2	1	0	1	0	39.8665	-0.105225	-0.105301	-0.000157342	2	8.82156e-06	1.65683e-08
2	1	0	1	0	39.9665	-0.100225	-0.100301	-0.000152763	2	8.80642e-06	1.53223e-08
2	1	0	0	0	40.0667	-0.0952249	-0.0953861	-0.000148049	3	8.79169e-06	1.41218e-08
2	1	0	0	0	40.1667	-0.0902247	-0.0903346	-0.000144201	3	8.77742e-06	1.30264e-08
2	1	0	0	0	40.2667	-0.0852245	-0.0853478	-0.000140156	3	8.76357e-06	1.1962e-08
2	1	0	0	0	40.3667	-0.0802243	-0.0802868	-0.000134043	3	8.75012e-06	1.07619e-08
2	1	0	0	0	40.4667	-0.0752242	-0.0752618	-0.00013201	3	8.73711e-06	9.93529e-09
2	1	0	0	0	40.5667	-0.070224	-0.070363	-0.000127378	3	8.72449e-06	8.96271e-09
2	1	0	0	0	40.6667	-0.0652238	-0.0653009	-0.000121461	3	8.71228e-06	7.9315e-09
2	1	0	0	0	40.7667	-0.0602236	-0.060348	-0.000118076	3	8.70049e-06	7.12567e-09
2	1	0	0	0	40.8667	-0.0552235	-0.0552647	-0.000115195	3	8.68914e-06	6.36624e-09
2	1	0	0	0	40.9667	-0.0502233	-0.0502863	-0.00010982	3	8.67825e-06	5.52246e-09
2	1	0	0	0	41.0667	-0.0452231	-0.0453313	-0.00010621	3	8.66779e-06	4.81463e-09
2	1	0	0	0	41.1667	-0.0402229	-0.0403148	-9.88333e-05	3	8.65784e-06	3.98444e-09
2	1	0	0	0	41.2667	-0.0352228	-0.0353089	-9.42654e-05	3	8.64846e-06	3.32841e-09
2	1	0	0	0	41.3667	-0.0302226	-0.0302722	-8.78622e-05	3	8.63972e-06	2.65978e-09
2	1	0	0	0	41.4667	-0.0252224	-0.0253161	-7.97138e-05	3	8.63169e-06	2.01805e-09
2	1	0	0	0	41.5667	-0.0202222	-0.0202996	-6.93239e-05	3	8.62454e-06	1.40725e-09
2	1	0	0	0	41.6667	-0.0152221	-0.0152969	-5.75632e-05	3	8.61841e-06	8.80539e-10
2	1	0	0	0	41.7667	-0.0102219	-0.0103366	-4.27697e-05	3	8.6136e-06	4.42092e-10
2	1	0	0	0	41.8667	-0.0052217	-0.00530628	-2.63404e-05	3	8.6104e-06	1.3977e-10
2	1	0	0	0	41.9667	-0.000221528	-0.000304608	-1.678e-06	3	8.60934e-06	5.11132e-13
2	1	0	0	0	42.0667	0.00477864	0.00467374	2.78614e-05	3	8.61094e-06	1.30217e-10
2	1	0	0	0	42.1667	0.00977882	0.00975915	6.71443e-05	3	8.61597e-06	6.55272e-10
2	1	0	0	0	42.2667	0.014779	0.014676	0.000116206	3	8.62546e-06	1.70544e-09
2	1	0	0	0	42.3667	0.0197792	0.0196904	0.000181711	3	8.64061e-06	3.57796e-09
2	1	0	0	0	42.4667	0.0247793	0.0247037	0.000262465	3	8.66296e-06	6.48387e-09
2	1	0	0	0	42.5667	0.0297795	0.0297213	0.000360223	3	8.69425e-06	1.07063e-08
2	1	0	0	0	42.6667	0.0347797	0.0347346	0.000479333	3	8.73642e-06	1.66494e-08
2	1	0	0	0	42.7667	0.0397799	0.0397416	0.000619578	3	8.79157e-06	2.4623e-08
2	1	0	0	0	42.8667	0.04478	0.0446828	0.000776826	3	8.86162e-06	3.47108e-08
2	1	0	0	0	42.9667	0.0497802	0.0497417	0.000949348	3	8.94824e-06	4.72222e-08
2	1	0	0	0	43.0667	0.0547804	0.0547805	0.00113032	3	9.05279e-06	6.19195e-08
2	1	0	0	0	43.1667	0.0597805	0.0597536	0.00130999	3	9.17529e-06	7.82768e-08
2	1	0	0	0	43.2667	0.0647807	0.0647626	0.00147654	3	9.31514e-06	9.56247e-08
2	1	0	0	0	43.3667	0.0697809	0.0697389	0.00162184	3	9.47066e-06	1.13105e-07
2	1	0	0	0	43.4667	0.0747811	0.07466	0.00173681	3	9.63925e-06	1.2967e-07
2	1	0	0	0	43.5667	0.0797812	0.079685	0.00181988	3	9.81779e-06	1.45017e-07
2	1	0	0	0	43.6667	0.0847814	0.0847195	0.00186658	3	1.00027e-05	1.58135e-07
2	1	0	0	0	43.7667	0.0897816	0.0897021	0.00188178	3	1.01907e-05	1.68799e-07
2	1	0	0	0	43.8667	0.0947817	0.09469	0.00186899	3	1.03787e-05	1.76974e-07
2	1	0	0	0	43.9667	0.0997819	0.0997266	0.00183746	3	1.05644e-05	1.83243e-07
2	1	0	0	0	44.0667	0.104782	0.10466	0.0017881	3	1.0746e-05	1.87143e-07
2	1	0	0	0	44.1667	0.109782	0.10971	0.00173131	3	1.09224e-05	1.89942e-07
2	1	0	0	0	44.2667	0.114782	0.114698	0.00167105	3	1.10929e-05	1.91665e-07
2	1	0	0	0	44.3667	0.119783	0.11969	0.00161049	3	1.12574e-05	1.92759e-07
2	1	0	0	0	44.4667	0.124783	0.124728	0.00155135	3	1.14158e-05	1.93496e-07
2	1	0	0	0	44.5667	0.129783	0.129693	0.00149338	3	1.15685e-05	1.93681e-07
2	1	0	0	0	44.6667	0.134783	0.134703	0.00144201	3	1.17156e-05	1.94243e-07
2	1	0	0	0	44.7667	0.139783	0.139633	0.00139478	3	1.18577e-05	1.94758e-07
2	1	0	0	0	44.8667	0.144783	0.144717	0.00134823	3	1.1995e-05	1.95112e-07
2	1	0	0	0	44.9667	0.149784	0.149658	0.00130662	3	1.2128e-05	1.95547e-07
2	1	0	0	0	45.0667	0.154784	0.154716	0.00126958	3	1.22571e-05	1.96424e-07
2	1	0	0	0	45.1667	0.159784	0.159708	0.00123318	3	1.23826e-05	1.96949e-07
2	1	0	0	0	45.2667	0.164784	0.16471	0.00120243	3	1.25047e-05	1.98052e-07
2	1	0	0	0	45.3667	0.169784	0.169697	0.00117241	3	1.26239e-05	1.98954e-07
2	1	0	0	0	45.4667	0.174785	0.174718	0.00114642	3	1.27402e-05	2.003e-07
2	1	0	0	0	45.5667	0.179785	0.17971	0.00112137	3	1.28539e-05	2.01521e-07
2	1	0	0	0	45.6667	0.184785	0.184706	0.00109905	3	1.29653e-05	2.03001e-07
2	1	0	1	0	45.7669	0.189785	0.189677	0.0010773	3	1.30746e-05	2.0434e-07
2	1	0	1	0	45.8669	0.194785	0.194752	0.00105742	3	1.31817e-05	2.05934e-07
2	1	0	1	0	45.9669	0.199785	0.199632	0.00104025	3	1.32869e-05	2.07667e-07
2	1	0	1	0	46.0669	0.204786	0.204716	0.00102391	3	1.33903e-05	2.09611e-07
2	1	0	1	0	46.1669	0.209786	0.209687	0.00100586	3	1.34921e-05	2.10916e-07
2	1	0	1	0	46.2669	0.214786	0.214736	0.000992381	3	1.35924e-05	2.131e-07
2	1	0	1	0	46.3669	0.219786	0.219702	0.000978861	3	1.36914e-05	2.15058e-07
2	1	0	1	0	46.4669	0.224786	0.224713	0.000965821	3	1.37889e-05	2.17033e-07
2	1	0	1	0	46.5669	0.229786	0.229741	0.000952107	3	1.38852e-05	2.18738e-07
2	1	0	1	0	46.6669	0.234787	0.234674	0.000941855	3	1.39802e-05	2.21029e-07
2	1	0	1	0	46.7669	0.239787	0.239676	0.000929746	3	1.40741e-05	2.22838e-07
2	1	0	1	0	46.8669	0.244787	0.244691	0.000919243	3	1.41669e-05	2.24931e-07
2	1	0	1	0	46.9669	0.249787	0.24971	0.000908429	3	1.42587e-05	2.26844e-07
2	1	0	1	0	47.0669	0.254787	0.254709	0.000900238	3	1.43494e-05	2.29299e-07
2	1	0	1	0	47.1669	0.259787	0.259667	0.00089238	3	1.44393e-05	2.31721e-07
2	1	0	1	0	47.2669	0.264788	0.264672	0.000883085	3	1.45284e-05	2.33728e-07
2	1	0	1	0	47.3669	0.269788	0.269728	0.000876608	3	1.46167e-05	2.36446e-07
2	1	0	1	0	47.4669	0.274788	0.274694	0.000870169	3	1.47044e-05	2.3903e-07
2	1	0	1	0	47.5669	0.279788	0.279709	0.000865124	3	1.47915e-05	2.41983e-07
2	1	0	1	0	47.6669	0.284788	0.284663	0.00086045	3	1.48781e-05	2.44939e-07
2	1	0	1	0	47.7669	0.289788	0.289708	0.000855656	3	1.49643e-05	2.47891e-07
2	1	0	1	0	47.8669	0.294789	0.294709	0.000853574	3	1.50501e-05	2.51556e-07
2	1	0	1	0	47.9664	0.299764	0.29964	0.000850604	3	1.51352e-05	2.54875e-07
2	0	0	1	0	48.0473	0.296189	0.296094	0.000707503	3	1.51944e-05	2.09488e-07
2	0	0	1	0	48.1473	0.291189	0.291077	0.000676171	3	1.52632e-05	1.96818e-07
2	0	0	1	0	48.2473	0.286188	0.286109	0.000653863	3	1.53295e-05	1.87076e-07
2	0	0	1	0	48.3473	0.281188	0.281084	0.000634595	3	1.53937e-05	1.78375e-07
2	0	0	1	0	48.4473	0.276188	0.276018	0.000620468	3	1.54563e-05	1.7126e-07
2	0	0	1	0	48.5473	0.271188	0.271096	0.000604358	3	1.55174e-05	1.63839e-07
2	0	0	1	0	48.6473	0.266188	0.266095	0.00059308	3	1.55772e-05	1.57816e-07
2	0	0	1	0	48.7473	0.261188	0.261111	0.00058251	3	1.56358e-05	1.521e-07
2	0	0	1	0	48.8473	0.256187	0.256047	0.000572727	3	1.56934e-05	1.46645e-07
2	0	0	1	0	48.9473	0.251187	0.251016	0.000561839	3	1.57499e-05	1.41031e-07
2	0	0	1	0	49.0473	0.246187	0.246096	0.000552599	3	1.58054e-05	1.35992e-07
2	0	0	1	0	49.1473	0.241187	0.241064	0.000545232	3	1.58601e-05	1.31436e-07
2	0	0	1	0	49.2473	0.236187	0.236033	0.000535275	3	1.59138e-05	1.26343e-07
2	0	0	1	0	49.3473	0.231186	0.231052	0.000526155	3	1.59668e-05	1.21569e-07
2	0	0	1	0	49.4473	0.226186	0.226094	0.000519721	3	1.60189e-05	1.17506e-07
2	0	0	1	0	49.5473	0.221186	0.221049	0.000511909	3	1.60703e-05	1.13157e-07
2	0	0	1	0	49.6473	0.216186	0.216052	0.000503649	3	1.61209e-05	1.08814e-07
2	0	0	1	0	49.7473	0.211186	0.211018	0.000495324	3	1.61707e-05	1.04522e-07
2	0	0	1	0	49.8473	0.206186	0.206102	0.000489497	3	1.62198e-05	1.00886e-07
2	0	0	1	0	49.9473	0.201185	0.201074	0.000482521	3	1.62681e-05	9.70227e-08
2	0	0	1	0	50.0473	0.196185	0.196081	0.00047476	3	1.63157e-05	9.30915e-08
2	0	0	1	0	50.1473	0.191185	0.191038	0.000466284	3	1.63625e-05	8.90782e-08
2	0	0	0	0	50.2475	0.186185	0.185991	0.000458041	3	1.64087e-05	8.51915e-08
2	0	0	0	0	50.3475	0.181185	0.181019	0.000450422	3	1.6454e-05	8.1535e-08
2	0	0	0	0	50.4475	0.176185	0.176046	0.000443168	3	1.64986e-05	7.80179e-08
2	0	0	0	0	50.5475	0.171184	0.171076	0.000435922	3	1.65424e-05	7.45758e-08
2	0	0	0	0	50.6475	0.166184	0.166056	0.000427422	3	1.65854e-05	7.09762e-08
2	0	0	0	0	50.7475	0.161184	0.161087	0.000419017	3	1.66276e-05	6.74981e-08
2	0	0	0	0	50.8475	0.156184	0.15602	0.000410113	3	1.6669e-05	6.3986e-08
2	0	0	0	0	50.9475	0.151184	0.151053	0.000400859	3	1.67094e-05	6.05507e-08
2	0	0	0	0	51.0475	0.146184	0.145983	0.00039049	3	1.67489e-05	5.70049e-08
2	0	0	0	0	51.1475	0.141183	0.141041	0.000381238	3	1.67874e-05	5.377e-08
2	0	0	0	0	51.2475	0.136183	0.136062	0.000367848	3	1.68247e-05	5.00503e-08
2	0	0	0	0	51.3475	0.131183	0.131063	0.000355162	3	1.68607e-05	4.65486e-08
2	0	0	0	0	51.4475	0.126183	0.126058	0.000339394	3	1.68953e-05	4.27833e-08
2	0	0	0	0	51.5475	0.121183	0.121041	0.000321039	3	1.69283e-05	3.8859e-08
2	0	0	0	0	51.6475	0.116183	0.116037	0.000300475	3	1.69592e-05	3.48661e-08
2	0	0	0	0	51.7475	0.111182	0.111083	0.000274316	3	1.69878e-05	3.04718e-08
2	0	0	0	0	51.8475	0.106182	0.106052	0.000242335	3	1.70134e-05	2.57003e-08
2	0	0	0	0	51.9475	0.101182	0.101032	0.000202821	3	1.70356e-05	2.04914e-08
2	0	0	0	0	52.0475	0.0961818	0.096049	0.000154182	3	1.70534e-05	1.4809e-08
2	0	0	0	0	52.1475	0.0911816	0.0910569	9.25522e-05	3	1.70657e-05	8.42751e-09
2	0	0	0	0	52.2475	0.0861815	0.0860446	1.99392e-05	3	1.70714e-05	1.71566e-09
2	0	0	0	0	52.3475	0.0811813	0.0810769	-7.12351e-05	3	1.70688e-05	-5.77552e-09
2	0	0	0	0	52.4475	0.0761811	0.0760826	-0.000182241	3	1.70561e-05	-1.38654e-08
2	0	0	0	0	52.5475	0.0711809	0.0710926	-0.000315185	3	1.70312e-05	-2.24073e-08
2	0	0	0	0	52.6475	0.0661808	0.0661058	-0.000468411	3	1.6992e-05	-3.09647e-08
2	0	0	0	0	52.7475	0.0611806	0.0611042	-0.00064143	3	1.69365e-05	-3.9194e-08
2	0	0	0	0	52.8475	0.0561804	0.0560845	-0.000828494	3	1.6863e-05	-4.64657e-08
2	0	0	0	0	52.9475	0.0511803	0.0511252	-0.00101845	3	1.67705e-05	-5.20685e-08
2	0	0	0	0	53.0475	0.0461801	0.0461055	-0.00120717	3	1.66588e-05	-5.56571e-08
2	0	0	0	0	53.1475	0.0411799	0.0410996	-0.00137345	3	1.65294e-05	-5.64481e-08
2	0	0	0	0	53.2475	0.0361797	0.0360863	-0.00150916	3	1.63849e-05	-5.44601e-08
2	0	0	0	0	53.3475	0.0311796	0.0310867	-0.00160342	3	1.62288e-05	-4.98451e-08
2	0	0	0	0	53.4475	0.0261794	0.026049	-0.00165599	3	1.60654e-05	-4.31369e-08
2	0	0	0	0	53.5475	0.0211792	0.0210717	-0.00166403	3	1.58991e-05	-3.5064e-08
2	0	0	0	0	53.6475	0.016179	0.0161008	-0.00163788	3	1.57336e-05	-2.63711e-08
2	0	0	0	0	53.7475	0.0111789	0.0111023	-0.00158742	3	1.55721e-05	-1.76241e-08
2	0	0	0	0	53.8475	0.00617869	0.00608688	-0.00151798	3	1.54167e-05	-9.23977e-09
2	0	0	0	0	53.9475	0.00117852	0.00102161	-0.00144313	3	1.52686e-05	-1.47431e-09
2	0	0	0	0	54.0475	-0.00382165	-0.0039843	-0.00136443	3	1.51281e-05	5.43629e-09
2	0	0	0	0	54.1475	-0.00882183	-0.00899339	-0.00128984	3	1.49954e-05	1.16001e-08
2	0	0	0	0	54.2475	-0.013822	-0.0139739	-0.00121862	3	1.48701e-05	1.70288e-08
2	0	0	0	0	54.3475	-0.0188222	-0.0189925	-0.00115066	3	1.47517e-05	2.18539e-08
2	0	0	0	0	54.4475	-0.0238224	-0.0239199	-0.00109178	3	1.46395e-05	2.61153e-08
2	0	0	0	0	54.5475	-0.0288225	-0.0289672	-0.0010377	3	1.45329e-05	3.00591e-08
2	0	0	0	0	54.6475	-0.0338227	-0.0339339	-0.000990081	3	1.44315e-05	3.35973e-08
2	0	0	0	0	54.7475	-0.0388229	-0.0389387	-0.000945746	3	1.43346e-05	3.68262e-08
2	0	0	0	0	54.8475	-0.0438231	-0.0439595	-0.00090797	3	1.42419e-05	3.99139e-08
2	0	0	0	0	54.9475	-0.0488232	-0.0489357	-0.000871858	3	1.41528e-05	4.2665e-08
2	0	0	0	0	55.0475	-0.0538234	-0.0540063	-0.00084037	3	1.4067e-05	4.53853e-08
2	0	0	0	0	55.1475	-0.0588236	-0.0589592	-0.000810415	3	1.39843e-05	4.77814e-08
2	0	0	0	0	55.2475	-0.0638238	-0.0639545	-0.000784354	3	1.39044e-05	5.0163e-08
2	0	0	0	0	55.3475	-0.0688239	-0.0689403	-0.000761574	3	1.38271e-05	5.25031e-08
2	0	0	0	0	55.4475	-0.0738241	-0.0739896	-0.000737875	3	1.3752e-05	5.45951e-08
2	0	0	0	0	55.5475	-0.0788243	-0.0789425	-0.000716756	3	1.36792e-05	5.65825e-08
2	0	0	0	0	55.6475	-0.0838244	-0.0839463	-0.000697712	3	1.36084e-05	5.85704e-08
2	0	0	0	0	55.7475	-0.0888246	-0.0889703	-0.000679898	3	1.35394e-05	6.04907e-08
2	0	0	0	0	55.8475	-0.0938248	-0.0939921	-0.000662736	3	1.34722e-05	6.22919e-08
2	0	0	0	0	55.9476	-0.0988217	-0.0988927	-0.000646315	3	1.34065e-05	6.39158e-08
2	0	0	1	0	56.0477	-0.103825	-0.103955	-0.000634189	3	1.33423e-05	6.59272e-08
2	0	0	1	0	56.1477	-0.108825	-0.108981	-0.000620035	3	1.32796e-05	6.75722e-08
2	0	0	1	0	56.2477	-0.113825	-0.113958	-0.000607564	3	1.32182e-05	6.92371e-08
2	0	0	1	0	56.3477	-0.118826	-0.118912	-0.00059565	3	1.31579e-05	7.08302e-08
2	0	0	1	0	56.4477	-0.123826	-0.123924	-0.000583418	3	1.30988e-05	7.22992e-08
2	0	0	1	0	56.5477	-0.128826	-0.128939	-0.000575329	3	1.30408e-05	7.41824e-08
2	0	0	1	0	56.6477	-0.133826	-0.133933	-0.000563491	3	1.29838e-05	7.54702e-08
2	0	0	1	0	56.7477	-0.138826	-0.138909	-0.000554161	3	1.29279e-05	7.69776e-08
2	0	0	1	0	56.8477	-0.143827	-0.143923	-0.000545615	3	1.28728e-05	7.85265e-08
2	0	0	1	0	56.9477	-0.148827	-0.148898	-0.000535622	3	1.28187e-05	7.97532e-08
2	0	0	1	0	57.0477	-0.153827	-0.15394	-0.000527154	3	1.27654e-05	8.11502e-08
2	0	0	1	0	57.1477	-0.158827	-0.158919	-0.000519965	3	1.2713e-05	8.26326e-08
2	0	0	1	0	57.2477	-0.163827	-0.163968	-0.000510642	3	1.26613e-05	8.37288e-08
2	0	0	1	0	57.3477	-0.168827	-0.168974	-0.000505569	3	1.26104e-05	8.54278e-08
2	0	0	1	0	57.4477	-0.173828	-0.173986	-0.000499323	3	1.25601e-05	8.68752e-08
2	0	0	1	0	57.5477	-0.178828	-0.178962	-0.000492699	3	1.25104e-05	8.81745e-08
2	0	0	1	0	57.6477	-0.183828	-0.183921	-0.000487031	3	1.24613e-05	8.95754e-08
2	0	0	1	0	57.7477	-0.188828	-0.188922	-0.000482396	3	1.24128e-05	9.11351e-08
2	0	0	1	0	57.8477	-0.193828	-0.193987	-0.000478292	3	1.23647e-05	9.27826e-08
2	0	0	1	0	57.9477	-0.198828	-0.198903	-0.00047149	3	1.23171e-05	9.37808e-08
2	1	0	0	1	58.0371	-0.196728	-0.19682	-0.000331344	3	1.22833e-05	6.52151e-08
2	1	0	0	1	58.1371	-0.191728	-0.191783	-0.000308478	3	1.22517e-05	5.91609e-08
2	1	0	0	1	58.2371	-0.186728	-0.186792	-0.000291927	3	1.2222e-05	5.45297e-08
2	1	0	0	1	58.3371	-0.181728	-0.181854	-0.000277932	3	1.21937e-05	5.05431e-08
2	1	0	0	1	58.4371	-0.176728	-0.176793	-0.000267332	3	1.21667e-05	4.72624e-08
2	1	0	0	1	58.5371	-0.171728	-0.17185	-0.00025715	3	1.21408e-05	4.41912e-08
2	1	0	0	1	58.6371	-0.166727	-0.166823	-0.000247852	3	1.21158e-05	4.13473e-08
2	1	0	0	1	58.7371	-0.161727	-0.161796	-0.000237633	3	1.20918e-05	3.8448e-08
2	1	0	0	1	58.8371	-0.156727	-0.156839	-0.000230205	3	1.20686e-05	3.61053e-08
2	1	0	0	1	58.9371	-0.151727	-0.151726	-0.000223071	3	1.20462e-05	3.38458e-08
2	1	0	0	1	59.0371	-0.146727	-0.146808	-0.00021444	3	1.20245e-05	3.14815e-08
2	1	0	0	1	59.1371	-0.141726	-0.141784	-0.000207136	3	1.20035e-05	2.93685e-08
2	1	0	0	1	59.2371	-0.136726	-0.136824	-0.000201175	3	1.19832e-05	2.75256e-08
2	1	0	0	1	59.3371	-0.131726	-0.131794	-0.000196437	3	1.19636e-05	2.58893e-08
2	1	0	0	1	59.4371	-0.126726	-0.126765	-0.000189455	3	1.19445e-05	2.40162e-08
2	1	0	0	1	59.5371	-0.121726	-0.121832	-0.000183514	3	1.19261e-05	2.23579e-08
2	1	0	0	1	59.6371	-0.116726	-0.116832	-0.000178572	3	1.19082e-05	2.0863e-08
2	1	0	0	1	59.7371	-0.111725	-0.111804	-0.000172957	3	1.18908e-05	1.93373e-08
2	1	0	0	1	59.8371	-0.106725	-0.106837	-0.000169327	3	1.18739e-05	1.80903e-08
2	1	0	0	1	59.9371	-0.101725	-0.101819	-0.000162386	3	1.18575e-05	1.6534e-08
2	1	0	1	1	60.0373	-0.0967249	-0.0968459	-0.000158202	3	1.18415e-05	1.53212e-08
2	1	0	1	1	60.1373	-0.0917247	-0.0918888	-0.000155614	3	1.1826e-05	1.42992e-08
2	1	0	1	1	60.2373	-0.0867246	-0.0868193	-0.000151811	3	1.18109e-05	1.31801e-08
2	1	0	1	1	60.3373	-0.0817244	-0.0818378	-0.000145834	3	1.17963e-05	1.19347e-08
2	1	0	1	1	60.4373	-0.0767242	-0.0768106	-0.000142417	3	1.17821e-05	1.09392e-08
2	1	0	1	1	60.4812	-0.0744991	-0.0745494	-0.000142785	3	1.17759e-05	1.06445e-08