File: AutoAnalysis Examples/EC/C003B-10ppb-A_C01.mpt
EC-Lab ASCII FILE
Nb header lines : 59

Cyclic Voltammetry

Run on channel : 1 (SN 22398)
User :
CE vs. WE compliance from -10 V to 10 V
Electrode connection : standard
Ewe ctrl range : min = -1.00 V, max = 1.00 V
Safety Limits :
	Ewe min = -2.00 V
	Ewe max = 2.00 V
	|I| = 50.000 mA
	for t > 10 ms
Acquisition started on : 11/21/2018 10:19:48
Technique started on : 11/21/2018 10:19:48
Saved on :
	File : C003B-10ppb-A_C01.mpr
	Directory : \\ECCOMPUTER\Users\Lab User\Google Drive\Electrochemical Data\EC-Lab\Data\FREDsense\Tim\2018.11.21 - EC comparison to High Throughput\
	Host : 172.16.1.30
Device : SP-50 (SN 0301030103010301)
Address : USB
EC-Lab for windows v11.02 (software)
Internet server v11.02 (firmware)
Command interpretor v11.02 (firmware)
Electrode material : Au/Pd
Initial state :
Electrolyte : NaCl (0.2M)
Comments : Fe(CN)63-/Fe(CN)64- 5.10-3 M
Reference electrode : SCE Saturated Calomel Electrode (0.241 V)
Electrode surface area : 0.001 cm²
Characteristic mass : 0.001 g
Equivalent Weight : 0.000 g/eq.
Density : 0.000 g/cm3
Cycle Definition : Charge/Discharge alternance
Ei (V)              -0.100
vs.                 Ref
dE/dt               50.000
dE/dt unit          mV/s
E1 (V)              0.300
vs.                 Ref
Step percent        50
N                   10
E range min (V)     -1.000
E range max (V)     1.000
I Range             Auto
I Range min         Unset
I Range max         Unset
I Range init        Unset
Bandwidth           5
E2 (V)              -0.200
vs.                 Ref
nc cycles           2
Reverse Scan        1
Ef (V)              0.000
vs.                 Eoc

mode	ox/red	error	control changes	counter inc.	time/s	control/V	Ewe/V	<I>/mA	cycle number	(Q-Qo)/C	P/W
2	1	0	1	0	0.000000000000000E+000	-0.0985237	-0.0985242	-0.000134734	1	0.0000000E+000	1.32745e-08
2	1	0	0	0	0.111	-0.0929735	-0.0930753	-7.70599e-06	1	9.78379e-10	7.17237e-10
2	1	0	1	0	0.2265	-0.0871983	-0.0872572	3.86506e-05	1	5.84251e-09	-3.37254e-09
2	1	0	1	0	0.3265	-0.0821981	-0.0822831	4.5642e-05	1	1.03685e-08	-3.75556e-09
2	1	0	1	0	0.4265	-0.0771979	-0.0772708	5.04165e-05	1	1.54175e-08	-3.89573e-09
2	1	0	1	0	0.5265	-0.0721977	-0.072249	5.41419e-05	1	2.08381e-08	-3.9117e-09
2	1	0	1	0	0.6265	-0.0671975	-0.067294	5.45799e-05	1	2.65505e-08	-3.6729e-09
2	1	0	1	0	0.7265	-0.0621973	-0.0622722	5.80262e-05	1	3.25236e-08	-3.61342e-09
2	1	0	1	0	0.8265	-0.0571971	-0.0573182	6.09849e-05	1	3.87309e-08	-3.49555e-09
2	1	0	1	0	0.9265	-0.0521969	-0.0522869	6.51765e-05	1	4.5188e-08	-3.40788e-09
2	1	0	1	0	1.0265	-0.0471967	-0.0472576	6.63971e-05	1	5.18723e-08	-3.13777e-09
2	1	0	1	0	1.1265	-0.0421966	-0.0422104	6.74941e-05	1	5.87823e-08	-2.84895e-09
2	1	0	1	0	1.2265	-0.0371964	-0.0372765	7.08608e-05	1	6.59611e-08	-2.64145e-09
2	1	0	1	0	1.3265	-0.0321962	-0.0322399	7.30918e-05	1	7.34177e-08	-2.35647e-09
2	1	0	1	0	1.4265	-0.027196	-0.0272828	7.63119e-05	1	8.12144e-08	-2.082e-09
2	1	0	1	0	1.5265	-0.0221958	-0.0222768	8.08074e-05	1	8.94205e-08	-1.80013e-09
2	1	0	1	0	1.6265	-0.0171956	-0.0172762	8.73307e-05	1	9.81243e-08	-1.50875e-09
2	1	0	1	0	1.7265	-0.0121954	-0.0122523	9.44351e-05	1	1.07467e-07	-1.15705e-09
2	1	0	1	0	1.8265	-0.00719519	-0.00726124	0.00010317	1	1.17609e-07	-7.49141e-10
2	1	0	1	0	1.9265	-0.002195	-0.00225957	0.000115508	1	1.28826e-07	-2.60999e-10
2	1	0	1	0	2.0265	0.00280519	0.00278132	0.000131203	1	1.41514e-07	3.64917e-10
2	1	0	1	0	2.1265	0.00780539	0.00779677	0.00015258	1	1.56004e-07	1.18963e-09
2	1	0	1	0	2.2265	0.0128056	0.0127592	0.000181541	1	1.72963e-07	2.31633e-09
2	1	0	1	0	2.3265	0.0178058	0.0177407	0.000217889	1	1.93159e-07	3.8655e-09
2	1	0	1	0	2.4265	0.022806	0.0227763	0.000264405	1	2.17536e-07	6.02217e-09
2	1	0	1	0	2.5265	0.0278062	0.0277101	0.000326151	1	2.4731e-07	9.03769e-09
2	1	0	1	0	2.6265	0.0328063	0.0327775	0.000400991	1	2.8379e-07	1.31435e-08
2	1	0	1	0	2.7265	0.0378065	0.0377485	0.000490027	1	3.28477e-07	1.84978e-08
2	1	0	1	0	2.8265	0.0428067	0.0426674	0.000594117	1	3.82901e-07	2.53494e-08
2	1	0	1	0	2.9265	0.0478069	0.0477295	0.000710966	1	4.48393e-07	3.39341e-08
2	1	0	1	0	3.0265	0.0528071	0.0527418	0.000837906	1	5.26099e-07	4.41927e-08
2	1	0	1	0	3.1265	0.0578073	0.057736	0.000963373	1	6.16331e-07	5.56214e-08
2	1	0	1	0	3.2265	0.0628075	0.0627133	0.0010811	1	7.18862e-07	6.77996e-08
2	1	0	1	0	3.3265	0.0678077	0.0677097	0.00118731	1	8.32717e-07	8.03924e-08
2	1	0	1	0	3.4265	0.0728079	0.0727909	0.00127085	1	9.56115e-07	9.25064e-08
2	1	0	1	0	3.5265	0.0778081	0.0777565	0.00133308	1	1.08682e-06	1.03656e-07
2	1	0	1	0	3.6265	0.0828083	0.0827613	0.00136886	1	1.22237e-06	1.13288e-07
2	1	0	1	0	3.7265	0.0878085	0.0877492	0.00138136	1	1.36034e-06	1.21214e-07
2	1	0	1	0	3.8265	0.0928086	0.0927986	0.00137546	1	1.49859e-06	1.27641e-07
2	1	0	1	0	3.9265	0.0978088	0.0977441	0.00135307	1	1.6354e-06	1.32254e-07
2	1	0	1	0	4.0265	0.102809	0.102769	0.00132183	1	1.7695e-06	1.35843e-07
2	1	0	1	0	4.1265	0.107809	0.107766	0.00128493	1	1.90012e-06	1.38473e-07
2	1	0	1	0	4.2265	0.112809	0.112785	0.00124468	1	2.02683e-06	1.40381e-07
2	1	0	1	0	4.3265	0.11781	0.117732	0.00120326	1	2.14951e-06	1.41662e-07
2	1	0	1	0	4.4265	0.12281	0.122689	0.00116453	1	2.26818e-06	1.42874e-07
2	1	0	1	0	4.5265	0.12781	0.127759	0.00112782	1	2.38299e-06	1.44089e-07
2	1	0	1	0	4.6265	0.13281	0.132763	0.00109307	1	2.49419e-06	1.45119e-07
2	1	0	1	0	4.7265	0.13781	0.137683	0.00105957	1	2.60203e-06	1.45885e-07
2	1	0	1	0	4.8265	0.142811	0.142725	0.00103007	1	2.70683e-06	1.47017e-07
2	1	0	1	0	4.9265	0.147811	0.147696	0.00100434	1	2.80882e-06	1.48337e-07
2	1	0	1	0	5.0265	0.152811	0.152745	0.000983178	1	2.90826e-06	1.50176e-07
2	1	0	1	0	5.1265	0.157811	0.157759	0.000958019	1	3.00542e-06	1.51136e-07
2	1	0	0	0	5.2267	0.162811	0.162751	0.000938518	1	3.10062e-06	1.52745e-07
2	1	0	0	0	5.3267	0.167812	0.167718	0.000918401	1	3.19376e-06	1.54032e-07
2	1	0	0	0	5.4267	0.172812	0.172722	0.000902973	1	3.28515e-06	1.55964e-07
2	1	0	0	0	5.5267	0.177812	0.177743	0.00088666	1	3.37495e-06	1.57598e-07
2	1	0	0	0	5.6267	0.182812	0.182673	0.000874544	1	3.46332e-06	1.59755e-07
2	1	0	0	0	5.7267	0.187812	0.187714	0.000861683	1	3.55037e-06	1.6175e-07
2	1	0	0	0	5.8267	0.192813	0.192737	0.000852143	1	3.63623e-06	1.64239e-07
2	1	0	0	0	5.9267	0.197813	0.197707	0.000840322	1	3.72099e-06	1.66138e-07
2	1	0	0	0	6.0267	0.202813	0.202706	0.000831425	1	3.80479e-06	1.68535e-07
2	1	0	0	0	6.1267	0.207813	0.207728	0.000823019	1	3.88771e-06	1.70964e-07
2	1	0	0	0	6.2267	0.212813	0.212769	0.000815732	1	3.96983e-06	1.73562e-07
2	1	0	0	0	6.3267	0.217813	0.217717	0.000807066	1	4.05122e-06	1.75712e-07
2	1	0	0	0	6.4267	0.222814	0.222709	0.000801806	1	4.13195e-06	1.7857e-07
2	1	0	0	0	6.5267	0.227814	0.22774	0.000795972	1	4.21209e-06	1.81274e-07
2	1	0	0	0	6.6267	0.232814	0.232697	0.000792214	1	4.29177e-06	1.84346e-07
2	1	0	0	0	6.7267	0.237814	0.237711	0.000791239	1	4.37113e-06	1.88087e-07
2	1	0	0	0	6.8267	0.242814	0.242726	0.000787062	1	4.45031e-06	1.9104e-07
2	1	0	0	0	6.9267	0.247815	0.247673	0.000780996	1	4.52893e-06	1.93432e-07
2	1	0	0	0	7.0267	0.252815	0.252763	0.000775734	1	4.60695e-06	1.96077e-07
2	1	0	0	0	7.1267	0.257815	0.25778	0.000773305	1	4.68465e-06	1.99343e-07
2	1	0	0	0	7.2267	0.262815	0.262722	0.000768183	1	4.76203e-06	2.01818e-07
2	1	0	0	0	7.3267	0.267815	0.267747	0.000770034	1	4.83921e-06	2.06174e-07
2	1	0	0	0	7.4267	0.272816	0.272731	0.000768502	1	4.91629e-06	2.09595e-07
2	1	0	0	0	7.5267	0.277816	0.277711	0.000766174	1	4.99324e-06	2.12775e-07
2	1	0	0	0	7.6267	0.282816	0.282693	0.000765008	1	5.0701e-06	2.16263e-07
2	1	0	0	0	7.7267	0.287816	0.28772	0.000765606	1	5.14691e-06	2.2028e-07
2	1	0	0	0	7.8267	0.292816	0.292701	0.000765508	1	5.22368e-06	2.24065e-07
2	1	0	0	0	7.9267	0.297817	0.297725	0.000765388	1	5.30049e-06	2.27875e-07
2	0	0	1	0	8.0163	0.297717	0.29761	0.000628761	1	5.36374e-06	1.87126e-07
2	0	0	1	0	8.1163	0.292716	0.292599	0.000582123	1	5.42391e-06	1.70329e-07
2	0	0	1	0	8.2163	0.287716	0.287547	0.000547798	1	5.48018e-06	1.57518e-07
2	0	0	1	0	8.3163	0.282716	0.282609	0.000523295	1	5.5336e-06	1.47888e-07
2	0	0	1	0	8.4163	0.277716	0.277579	0.000502782	1	5.58472e-06	1.39562e-07
2	0	0	1	0	8.5163	0.272716	0.272583	0.000485531	1	5.63395e-06	1.32347e-07
2	0	0	1	0	8.6163	0.267715	0.267579	0.00046801	1	5.68153e-06	1.2523e-07
2	0	0	1	0	8.7163	0.262715	0.262583	0.000455594	1	5.72767e-06	1.19631e-07
2	0	0	1	0	8.8163	0.257715	0.257645	0.000444729	1	5.77254e-06	1.14582e-07
2	0	0	1	0	8.9163	0.252715	0.252608	0.000433301	1	5.81625e-06	1.09455e-07
2	0	0	1	0	9.0163	0.247715	0.247577	0.000422736	1	5.85893e-06	1.0466e-07
2	0	0	1	0	9.1163	0.242714	0.242562	0.00041396	1	5.90058e-06	1.00411e-07
2	0	0	1	0	9.2163	0.237714	0.237574	0.000406253	1	5.94142e-06	9.65155e-08
2	0	0	1	0	9.3163	0.232714	0.232583	0.000398944	1	5.98144e-06	9.27878e-08
2	0	0	1	0	9.4163	0.227714	0.227544	0.000389526	1	6.02069e-06	8.86341e-08
2	0	0	1	0	9.5163	0.222714	0.222585	0.000383038	1	6.05921e-06	8.52586e-08
2	0	0	1	0	9.6163	0.217713	0.217573	0.000375778	1	6.09705e-06	8.17592e-08
2	0	0	1	0	9.7163	0.212713	0.212575	0.000370223	1	6.1342e-06	7.86999e-08
2	0	0	1	0	9.8163	0.207713	0.207592	0.000363798	1	6.1707e-06	7.55216e-08
2	0	0	1	0	9.9163	0.202713	0.202633	0.000357098	1	6.20656e-06	7.23598e-08
2	0	0	1	0	10.0163	0.197713	0.197597	0.000349587	1	6.24181e-06	6.90775e-08
2	0	0	1	0	10.1163	0.192713	0.192605	0.000343463	1	6.27646e-06	6.61528e-08
2	0	0	1	0	10.2163	0.187712	0.187602	0.00033921	1	6.31049e-06	6.36366e-08
2	0	0	1	0	10.3163	0.182712	0.182556	0.000332657	1	6.34394e-06	6.07285e-08
2	0	0	1	0	10.4163	0.177712	0.17761	0.000325609	1	6.37677e-06	5.78312e-08
2	0	0	1	0	10.5163	0.172712	0.172597	0.000320287	1	6.409e-06	5.52806e-08
2	0	0	1	0	10.6163	0.167712	0.167594	0.000313286	1	6.44063e-06	5.25048e-08
2	0	0	1	0	10.7163	0.162711	0.162576	0.000307427	1	6.47161e-06	4.99803e-08
2	0	0	0	0	10.8165	0.157711	0.157567	0.000301769	1	6.50202e-06	4.75489e-08
2	0	0	0	0	10.9165	0.152711	0.152556	0.000292158	1	6.53166e-06	4.45704e-08
2	0	0	0	0	11.0165	0.147711	0.147617	0.000287845	1	6.56057e-06	4.24907e-08
2	0	0	0	0	11.1165	0.142711	0.142641	0.000280352	1	6.58873e-06	3.99898e-08
2	0	0	0	0	11.2165	0.13771	0.137598	0.00027088	1	6.61602e-06	3.72727e-08
2	0	0	0	0	11.3165	0.13271	0.132576	0.000260227	1	6.6424e-06	3.44998e-08
2	0	0	0	0	11.4165	0.12771	0.127551	0.000249067	1	6.66772e-06	3.17686e-08
2	0	0	0	0	11.5165	0.12271	0.122579	0.000237275	1	6.69184e-06	2.90848e-08
2	0	0	0	0	11.6165	0.11771	0.117567	0.000221905	1	6.71456e-06	2.60888e-08
2	0	0	0	0	11.7165	0.112709	0.11259	0.000203076	1	6.73563e-06	2.28643e-08
2	0	0	0	0	11.8165	0.107709	0.10763	0.000181253	1	6.75474e-06	1.95083e-08
2	0	0	0	0	11.9165	0.102709	0.10262	0.00015474	1	6.77148e-06	1.58793e-08
2	0	0	0	0	12.0165	0.0977088	0.0976222	0.000123791	1	6.7853e-06	1.20847e-08
2	0	0	0	0	12.1165	0.0927086	0.0926322	8.33263e-05	1	6.79554e-06	7.71869e-09
2	0	0	0	0	12.2165	0.0877085	0.0876019	3.31907e-05	1	6.8014e-06	2.90756e-09
2	0	0	0	0	12.3165	0.0827083	0.0825504	-2.49538e-05	1	6.80187e-06	-2.05995e-09
2	0	0	0	0	12.4165	0.0777081	0.0776717	-9.58216e-05	1	6.79581e-06	-7.44263e-09
2	0	0	0	0	12.5165	0.0727079	0.0725948	-0.000180753	1	6.78186e-06	-1.31218e-08
2	0	0	0	0	12.6165	0.0677077	0.067591	-0.000281473	1	6.75871e-06	-1.90251e-08
2	0	0	0	0	12.7165	0.0627075	0.0625745	-0.000392723	1	6.725e-06	-2.45744e-08
2	0	0	0	0	12.8165	0.0577073	0.0576226	-0.000513415	1	6.67963e-06	-2.95843e-08
2	0	0	0	0	12.9165	0.0527071	0.0526156	-0.00063733	1	6.62193e-06	-3.35335e-08
2	0	0	0	0	13.0165	0.0477069	0.0475854	-0.000759439	1	6.55177e-06	-3.61382e-08
2	0	0	0	0	13.1165	0.0427067	0.042589	-0.000867987	1	6.47008e-06	-3.69667e-08
2	0	0	0	0	13.2165	0.0377065	0.0376382	-0.00095656	1	6.37848e-06	-3.60032e-08
2	0	0	0	0	13.3165	0.0327063	0.0326016	-0.00102068	1	6.27921e-06	-3.32759e-08
2	0	0	0	0	13.4165	0.0277062	0.0275914	-0.00105342	1	6.1751e-06	-2.90655e-08
2	0	0	0	0	13.5165	0.022706	0.0226014	-0.00106207	1	6.06891e-06	-2.40042e-08
2	0	0	0	0	13.6165	0.0177058	0.0176464	-0.00104632	1	5.9632e-06	-1.84638e-08
2	0	0	0	0	13.7165	0.0127056	0.0126225	-0.00101357	1	5.85998e-06	-1.27937e-08
2	0	0	0	0	13.8165	0.00770538	0.00765472	-0.000970479	1	5.76063e-06	-7.42874e-09
2	0	0	0	0	13.9165	0.00270519	0.0026997	-0.000919317	1	5.66597e-06	-2.48188e-09
2	0	0	0	0	14.0165	-0.002295	-0.00238784	-0.00086913	1	5.57628e-06	2.07535e-09
2	0	0	0	0	14.1165	-0.0072952	-0.00737255	-0.000821907	1	5.49164e-06	6.05955e-09
2	0	0	0	0	14.2165	-0.0122954	-0.0123933	-0.000774579	1	5.41182e-06	9.59959e-09
2	0	0	0	0	14.3165	-0.0172956	-0.0173886	-0.000729952	1	5.33646e-06	1.26929e-08
2	0	0	0	0	14.4165	-0.0222958	-0.0223892	-0.000692577	1	5.26517e-06	1.55063e-08
2	0	0	0	0	14.5165	-0.027296	-0.0273644	-0.000657709	1	5.19755e-06	1.79978e-08
2	0	0	0	0	14.6165	-0.0322962	-0.032401	-0.000626221	1	5.13324e-06	2.02902e-08
2	0	0	0	0	14.7165	-0.0372964	-0.03739	-0.000598338	1	5.07189e-06	2.23719e-08
2	0	0	0	0	14.8165	-0.0422966	-0.0424023	-0.000574238	1	5.01316e-06	2.4349e-08
2	0	0	0	0	14.9165	-0.0472967	-0.0473668	-0.000552446	1	4.95683e-06	2.61676e-08
2	0	0	0	0	15.0165	-0.0522969	-0.0524533	-0.00053384	1	4.90262e-06	2.80017e-08
2	0	0	0	0	15.1165	-0.0572971	-0.0574571	-0.000512769	1	4.85034e-06	2.94622e-08
2	0	0	0	0	15.2165	-0.0622973	-0.0623835	-0.000494718	1	4.79983e-06	3.08622e-08
2	0	0	0	0	15.3165	-0.0672975	-0.0674912	-0.000480209	1	4.75091e-06	3.24099e-08
2	0	0	0	0	15.4165	-0.0722977	-0.0724123	-0.000466611	1	4.70347e-06	3.37884e-08
2	0	0	0	0	15.5165	-0.0772979	-0.0774023	-0.000453303	1	4.65736e-06	3.50867e-08
2	0	0	0	0	15.6165	-0.0822981	-0.082387	-0.000442371	1	4.61249e-06	3.64456e-08
2	0	0	0	0	15.7165	-0.0872983	-0.0874851	-0.000431013	1	4.56876e-06	3.77072e-08
2	0	0	0	0	15.8165	-0.0922985	-0.0924465	-0.000421418	1	4.52608e-06	3.89586e-08
2	0	0	0	0	15.9165	-0.0972987	-0.0974089	-0.000411411	1	4.48438e-06	4.00751e-08
2	0	0	1	0	16.0167	-0.102299	-0.102428	-0.000401177	1	4.44353e-06	4.10916e-08
2	0	0	1	0	16.1167	-0.107299	-0.107375	-0.000394093	1	4.40359e-06	4.23159e-08
2	0	0	1	0	16.2167	-0.112299	-0.112431	-0.00038506	1	4.36444e-06	4.32927e-08
2	0	0	1	0	16.3167	-0.117299	-0.117425	-0.000378872	1	4.32604e-06	4.44892e-08
2	0	0	1	0	16.4167	-0.1223	-0.122401	-0.000371839	1	4.28833e-06	4.55136e-08
2	0	0	1	0	16.5167	-0.1273	-0.127368	-0.000366822	1	4.25127e-06	4.67214e-08
2	0	0	1	0	16.6167	-0.1323	-0.132332	-0.000360523	1	4.2148e-06	4.77086e-08
2	0	0	1	0	16.7167	-0.1373	-0.137344	-0.000354498	1	4.17892e-06	4.86881e-08
2	0	0	1	0	16.8167	-0.1423	-0.142409	-0.000348815	1	4.14356e-06	4.96745e-08
2	0	0	1	0	16.9167	-0.147301	-0.147396	-0.000344721	1	4.10871e-06	5.08105e-08
2	0	0	1	0	17.0167	-0.152301	-0.152375	-0.000339846	1	4.07432e-06	5.17841e-08
2	0	0	1	0	17.1167	-0.157301	-0.157432	-0.000335477	1	4.04033e-06	5.28149e-08
2	0	0	1	0	17.2167	-0.162301	-0.162435	-0.000332434	1	4.00678e-06	5.39989e-08
2	0	0	1	0	17.3167	-0.167301	-0.167461	-0.000329783	1	3.97359e-06	5.52257e-08
2	0	0	1	0	17.4167	-0.172302	-0.172416	-0.000325718	1	3.94073e-06	5.6159e-08
2	0	0	1	0	17.5167	-0.177302	-0.177409	-0.000322735	1	3.90819e-06	5.72561e-08
2	0	0	1	0	17.6167	-0.182302	-0.182425	-0.000320051	1	3.8759e-06	5.83853e-08
2	0	0	1	0	17.7167	-0.187302	-0.18741	-0.000319112	1	3.84386e-06	5.98048e-08
2	0	0	1	0	17.8167	-0.192302	-0.192345	-0.00031754	1	3.81204e-06	6.10772e-08
2	0	0	1	0	17.9167	-0.197303	-0.197364	-0.000313424	1	3.78038e-06	6.18586e-08
2	1	0	0	1	17.9961	-0.198753	-0.198781	-0.000199301	1	3.75813e-06	3.96172e-08
2	1	0	0	1	18.0961	-0.193752	-0.193836	-0.000170452	1	3.74022e-06	3.30397e-08
2	1	0	0	1	18.1961	-0.188752	-0.188757	-0.000155425	1	3.72438e-06	2.93375e-08
2	1	0	0	1	18.2961	-0.183752	-0.183827	-0.000142387	1	3.70992e-06	2.61747e-08
2	1	0	0	1	18.3961	-0.178752	-0.1788	-0.000131529	1	3.69657e-06	2.35174e-08
2	1	0	0	1	18.4961	-0.173752	-0.173842	-0.000123515	1	3.68414e-06	2.14721e-08
2	1	0	0	1	18.5961	-0.168751	-0.16885	-0.000115386	1	3.67252e-06	1.94829e-08
2	1	0	0	1	18.6961	-0.163751	-0.163809	-0.000108444	1	3.66164e-06	1.77641e-08
2	1	0	0	1	18.7961	-0.158751	-0.158786	-0.000102394	1	3.65142e-06	1.62588e-08
2	1	0	0	1	18.8961	-0.153751	-0.153808	-9.64699e-05	1	3.64182e-06	1.48378e-08
2	1	0	0	1	18.9961	-0.148751	-0.148782	-9.17483e-05	1	3.63273e-06	1.36505e-08
2	1	0	0	1	19.0961	-0.143751	-0.143762	-8.69773e-05	1	3.62418e-06	1.2504e-08
2	1	0	0	1	19.1961	-0.13875	-0.138736	-8.27821e-05	1	3.61612e-06	1.14848e-08
2	1	0	0	1	19.2961	-0.13375	-0.133812	-7.64266e-05	1	3.6085e-06	1.02268e-08
2	1	0	0	1	19.3961	-0.12875	-0.128853	-7.17668e-05	1	3.60131e-06	9.24739e-09
2	1	0	0	1	19.4961	-0.12375	-0.123833	-7.01029e-05	1	3.59454e-06	8.68102e-09
2	1	0	0	1	19.5961	-0.11875	-0.118898	-6.59395e-05	1	3.58814e-06	7.84005e-09
2	1	0	0	1	19.6961	-0.113749	-0.113788	-6.20128e-05	1	3.58214e-06	7.0563e-09
2	1	0	0	1	19.7961	-0.108749	-0.108838	-5.82574e-05	1	3.57647e-06	6.34063e-09
2	1	0	0	1	19.8961	-0.103749	-0.10386	-5.52157e-05	1	3.57114e-06	5.73469e-09
2	1	0	0	1	19.9962	-0.0987488	-0.0988247	-5.31896e-05	2	3.56613e-06	5.25645e-09
2	1	0	1	1	20.0963	-0.0937486	-0.0938363	-4.99783e-05	2	3.56142e-06	4.68978e-09
2	1	0	1	1	20.1963	-0.0887484	-0.0888601	-4.52179e-05	2	3.55702e-06	4.01807e-09
2	1	0	1	1	20.2963	-0.0837482	-0.0838203	-4.36847e-05	2	3.5529e-06	3.66166e-09
2	1	0	1	1	20.3963	-0.078748	-0.0788154	-4.04716e-05	2	3.54908e-06	3.18979e-09
2	1	0	1	1	20.4963	-0.0737478	-0.0738371	-3.73239e-05	2	3.54552e-06	2.75589e-09
2	1	0	1	1	20.5963	-0.0687476	-0.0688259	-3.57059e-05	2	3.54224e-06	2.45749e-09
2	1	0	1	1	20.6963	-0.0637474	-0.0638221	-3.24734e-05	2	3.53922e-06	2.07252e-09
2	1	0	1	1	20.7963	-0.0587472	-0.0588183	-2.94793e-05	2	3.53647e-06	1.73392e-09
2	1	0	1	1	20.8963	-0.053747	-0.0538643	-2.52082e-05	2	3.53401e-06	1.35782e-09
2	1	0	1	1	20.9963	-0.0487468	-0.0488086	-2.35477e-05	2	3.53186e-06	1.14933e-09
2	1	0	1	1	21.0963	-0.0437466	-0.0438419	-1.99584e-05	2	3.52997e-06	8.75016e-10
2	1	0	1	1	21.1963	-0.0387464	-0.0388084	-1.68619e-05	2	3.52842e-06	6.54385e-10
2	1	0	1	1	21.2963	-0.0337462	-0.033811	-1.36648e-05	2	3.52722e-06	4.62019e-10
2	1	0	1	1	21.3963	-0.028746	-0.0288252	-7.89218e-06	2	3.52641e-06	2.27494e-10
2	1	0	1	1	21.4963	-0.0237458	-0.023831	-4.50423e-06	2	3.5261e-06	1.0734e-10
2	1	0	1	1	21.5963	-0.0187456	-0.0188431	7.59625e-07	2	3.52634e-06	-1.43137e-11
2	1	0	1	1	21.6963	-0.0137454	-0.0138128	1.06179e-05	2	3.52728e-06	-1.46663e-10
2	1	0	1	1	21.7963	-0.00874525	-0.00882916	1.95965e-05	2	3.52907e-06	-1.7302e-10
2	1	0	1	1	21.8963	-0.00374506	-0.00380629	3.20354e-05	2	3.53195e-06	-1.21936e-10
2	1	0	1	1	21.9963	0.00125513	0.00126641	4.86749e-05	2	3.5363e-06	6.16422e-11
2	1	0	1	1	22.0963	0.00625533	0.00620235	6.87447e-05	2	3.54242e-06	4.26378e-10
2	1	0	1	1	22.1963	0.0112555	0.0111966	9.62545e-05	2	3.55086e-06	1.07772e-09
2	1	0	1	1	22.2963	0.0162557	0.0161707	0.000128394	2	3.56235e-06	2.07622e-09
2	1	0	1	1	22.3963	0.0212559	0.021184	0.000171558	2	3.57768e-06	3.63428e-09
2	1	0	1	1	22.4963	0.0262561	0.0262493	0.00022775	2	3.59789e-06	5.97829e-09
2	1	0	1	1	22.5963	0.0312563	0.0311651	0.000293704	2	3.62416e-06	9.15331e-09
2	1	0	1	1	22.6963	0.0362565	0.0362102	0.000374646	2	3.65777e-06	1.3566e-08
2	1	0	1	1	22.7963	0.0412567	0.0412108	0.00046751	2	3.7001e-06	1.92665e-08
2	1	0	1	1	22.8963	0.0462569	0.0462104	0.000573356	2	3.7524e-06	2.6495e-08
2	1	0	1	1	22.9963	0.0512571	0.0511983	0.000688357	2	3.81576e-06	3.52427e-08
2	1	0	1	1	23.0963	0.0562572	0.05629	0.000805263	2	3.89082e-06	4.53283e-08
2	1	0	1	1	23.1963	0.0612574	0.0611656	0.000920909	2	3.97756e-06	5.63279e-08
2	1	0	1	1	23.2963	0.0662576	0.066199	0.00102722	2	4.07548e-06	6.80013e-08
2	1	0	1	1	23.3963	0.0712578	0.0711593	0.00112022	2	4.18329e-06	7.97144e-08
2	1	0	1	1	23.4963	0.076258	0.0762278	0.00118943	2	4.29923e-06	9.06673e-08
2	1	0	1	1	23.5963	0.0812582	0.0811828	0.00123788	2	4.42114e-06	1.00495e-07
2	1	0	1	1	23.6963	0.0862584	0.0862174	0.00126384	2	4.54673e-06	1.08965e-07
2	1	0	1	1	23.7963	0.0912586	0.0911745	0.00127019	2	4.67386e-06	1.15809e-07
2	1	0	1	1	23.8963	0.0962588	0.0961475	0.00125733	2	4.80063e-06	1.20889e-07
2	1	0	1	1	23.9963	0.101259	0.101202	0.00123441	2	4.92557e-06	1.24925e-07
2	1	0	1	1	24.0963	0.106259	0.106155	0.00120167	2	5.04765e-06	1.27563e-07
2	1	0	1	1	24.1963	0.111259	0.111168	0.00116288	2	5.16619e-06	1.29276e-07
2	1	0	1	1	24.2963	0.11626	0.116184	0.0011221	2	5.28088e-06	1.3037e-07
2	1	0	1	1	24.3963	0.12126	0.121205	0.00108493	2	5.39159e-06	1.31499e-07
2	1	0	1	1	24.4963	0.12626	0.126186	0.00104681	2	5.49837e-06	1.32093e-07
2	1	0	1	1	24.5963	0.13126	0.131206	0.00100899	2	5.60142e-06	1.32385e-07
2	1	0	1	1	24.6963	0.13626	0.136153	0.000974759	2	5.70095e-06	1.32717e-07
2	1	0	1	1	24.7963	0.141261	0.141203	0.000944697	2	5.79721e-06	1.33394e-07
2	1	0	1	1	24.8963	0.146261	0.146154	0.000915263	2	5.89044e-06	1.33769e-07
2	1	0	1	1	24.9963	0.151261	0.151176	0.000889091	2	5.98089e-06	1.3441e-07
2	1	0	1	1	25.0963	0.156261	0.156165	0.000864349	2	6.06887e-06	1.34981e-07
2	1	0	0	1	25.1965	0.161261	0.161204	0.000842071	2	6.15467e-06	1.35745e-07
2	1	0	0	1	25.2965	0.166261	0.166194	0.000822249	2	6.23819e-06	1.36653e-07
2	1	0	0	1	25.3965	0.171262	0.171204	0.000804646	2	6.31977e-06	1.37759e-07
2	1	0	0	1	25.4965	0.176262	0.176207	0.000786027	2	6.39958e-06	1.38503e-07
2	1	0	0	1	25.5965	0.181262	0.181204	0.000771329	2	6.47778e-06	1.39768e-07
2	1	0	0	1	25.6965	0.186262	0.186166	0.000757341	2	6.55447e-06	1.40991e-07
2	1	0	0	1	25.7965	0.191262	0.191172	0.000744826	2	6.62978e-06	1.4239e-07
2	1	0	0	1	25.8965	0.196263	0.196164	0.00073191	2	6.70385e-06	1.43574e-07
2	1	0	0	1	25.9965	0.201263	0.201186	0.000720706	2	6.77675e-06	1.44996e-07
2	1	0	0	1	26.0965	0.206263	0.206175	0.000710503	2	6.84864e-06	1.46488e-07
2	1	0	0	1	26.1965	0.211263	0.211167	0.000702496	2	6.91952e-06	1.48344e-07
2	1	0	0	1	26.2965	0.216263	0.216195	0.0006931	2	6.98953e-06	1.49845e-07
2	1	0	0	1	26.3965	0.221264	0.221217	0.00068601	2	7.05875e-06	1.51757e-07
2	1	0	0	1	26.4965	0.226264	0.22619	0.000676699	2	7.1272e-06	1.53062e-07
2	1	0	0	1	26.5965	0.231264	0.231159	0.000672864	2	7.19499e-06	1.55538e-07
2	1	0	0	1	26.6965	0.236264	0.236191	0.000665105	2	7.26215e-06	1.57092e-07
2	1	0	0	1	26.7965	0.241264	0.241173	0.000660991	2	7.32875e-06	1.59413e-07
2	1	0	0	1	26.8965	0.246265	0.246138	0.000655826	2	7.39485e-06	1.61424e-07
2	1	0	0	1	26.9965	0.251265	0.251174	0.000652835	2	7.46052e-06	1.63975e-07
2	1	0	0	1	27.0965	0.256265	0.256261	0.000648539	2	7.52583e-06	1.66196e-07
2	1	0	0	1	27.1965	0.261265	0.261287	0.000645814	2	7.59081e-06	1.68743e-07
2	1	0	0	1	27.2965	0.266265	0.266126	0.00064415	2	7.65551e-06	1.71425e-07
2	1	0	0	1	27.3965	0.271265	0.271193	0.000641652	2	7.72005e-06	1.74012e-07
2	1	0	0	1	27.4965	0.276266	0.276183	0.000641467	2	7.78444e-06	1.77162e-07
2	1	0	0	1	27.5965	0.281266	0.281205	0.000641166	2	7.84878e-06	1.80299e-07
2	1	0	0	1	27.6965	0.286266	0.286208	0.000641387	2	7.9131e-06	1.8357e-07
2	1	0	0	1	27.7965	0.291266	0.291156	0.000642175	2	7.97747e-06	1.86973e-07
2	1	0	0	1	27.8965	0.296266	0.296116	0.00064279	2	8.04196e-06	1.9034e-07
2	0	0	0	1	27.9871	0.299217	0.299035	0.00053522	2	8.09884e-06	1.6005e-07
2	0	0	0	1	28.0871	0.294216	0.294118	0.000489816	2	8.14966e-06	1.44064e-07
2	0	0	0	1	28.1871	0.289216	0.28906	0.00046638	2	8.19717e-06	1.34812e-07
2	0	0	0	1	28.2871	0.284216	0.284127	0.000444711	2	8.24244e-06	1.26354e-07
2	0	0	0	1	28.3871	0.279216	0.279059	0.000427185	2	8.28592e-06	1.1921e-07
2	0	0	0	1	28.4871	0.274216	0.274107	0.000413928	2	8.32792e-06	1.13461e-07
2	0	0	0	1	28.5871	0.269215	0.269099	0.000403646	2	8.36864e-06	1.08621e-07
2	0	0	0	1	28.6871	0.264215	0.26408	0.000393138	2	8.40823e-06	1.0382e-07
2	0	0	0	1	28.7871	0.259215	0.259113	0.000382384	2	8.44681e-06	9.90807e-08
2	0	0	0	1	28.8871	0.254215	0.254084	0.000373176	2	8.48448e-06	9.48179e-08
2	0	0	0	1	28.9871	0.249215	0.249042	0.000366368	2	8.52133e-06	9.1241e-08
2	0	0	0	1	29.0871	0.244214	0.244089	0.000359769	2	8.55741e-06	8.78156e-08
2	0	0	0	1	29.1871	0.239214	0.239106	0.000352361	2	8.59277e-06	8.42517e-08
2	0	0	0	1	29.2871	0.234214	0.234021	0.000345066	2	8.62746e-06	8.07526e-08
2	0	0	0	1	29.3871	0.229214	0.229048	0.000338998	2	8.66151e-06	7.76468e-08
2	0	0	0	1	29.4871	0.224214	0.224075	0.000332091	2	8.69496e-06	7.44133e-08
2	0	0	0	1	29.5871	0.219214	0.219063	0.000327548	2	8.72783e-06	7.17535e-08
2	0	0	0	1	29.6871	0.214213	0.214078	0.000321553	2	8.76011e-06	6.88374e-08
2	0	0	0	1	29.7871	0.209213	0.209064	0.000318043	2	8.79186e-06	6.64912e-08
2	0	0	0	1	29.8871	0.204213	0.204106	0.000311615	2	8.82306e-06	6.36027e-08
2	0	0	0	1	29.9871	0.199213	0.199098	0.000304979	2	8.85371e-06	6.07208e-08
2	0	0	0	1	30.0871	0.194213	0.194081	0.000300494	2	8.88385e-06	5.83201e-08
2	0	0	0	1	30.1871	0.189212	0.189074	0.000295197	2	8.91346e-06	5.58139e-08
2	0	0	0	1	30.2871	0.184212	0.184115	0.000291157	2	8.94257e-06	5.36062e-08
2	0	0	0	1	30.3871	0.179212	0.179117	0.000284627	2	8.97114e-06	5.09815e-08
2	0	0	0	1	30.4871	0.174212	0.174122	0.000279099	2	8.99917e-06	4.85973e-08
2	0	0	0	1	30.5871	0.169212	0.169057	0.000273827	2	9.02666e-06	4.62922e-08
2	0	0	0	1	30.6871	0.164211	0.164115	0.000268863	2	9.0536e-06	4.41246e-08
2	0	0	0	1	30.7872	0.159211	0.159107	0.000263632	2	9.07999e-06	4.19457e-08
2	0	0	1	1	30.8873	0.154211	0.154138	0.000256189	2	9.10579e-06	3.94886e-08
2	0	0	1	1	30.9873	0.149211	0.149064	0.000249602	2	9.13089e-06	3.72066e-08
2	0	0	1	1	31.0873	0.144211	0.144093	0.000241768	2	9.15531e-06	3.48371e-08
2	0	0	1	1	31.1873	0.13921	0.139127	0.000233721	2	9.179e-06	3.25169e-08
2	0	0	1	1	31.2873	0.13421	0.134083	0.000225436	2	9.20185e-06	3.02272e-08
2	0	0	1	1	31.3873	0.12921	0.129123	0.00021529	2	9.22378e-06	2.77988e-08
2	0	0	1	1	31.4873	0.12421	0.124084	0.000204383	2	9.24461e-06	2.53606e-08
2	0	0	1	1	31.5873	0.11921	0.119089	0.000189707	2	9.26423e-06	2.2592e-08
2	0	0	1	1	31.6873	0.114209	0.114103	0.00017372	2	9.28238e-06	1.98219e-08
2	0	0	1	1	31.7873	0.109209	0.10914	0.000156105	2	9.29876e-06	1.70374e-08
2	0	0	1	1	31.8873	0.104209	0.104121	0.000133177	2	9.31304e-06	1.38665e-08
2	0	0	1	1	31.9873	0.0992089	0.0990459	0.000102861	2	9.32471e-06	1.01879e-08
2	0	0	1	1	32.0873	0.0942087	0.0941354	6.94495e-05	2	9.33321e-06	6.53765e-09
2	0	0	1	1	32.1873	0.0892085	0.0890988	2.51871e-05	2	9.3378e-06	2.24414e-09
2	0	0	1	1	32.2873	0.0842083	0.0841215	-2.6941e-05	2	9.33756e-06	-2.26632e-09
2	0	0	1	1	32.3873	0.0792081	0.0791071	-9.40835e-05	2	9.33143e-06	-7.44267e-09
2	0	0	1	1	32.4873	0.0742079	0.0740853	-0.00017015	2	9.31821e-06	-1.26056e-08
2	0	0	1	1	32.5873	0.0692077	0.0691387	-0.000261192	2	9.29655e-06	-1.80585e-08
2	0	0	1	1	32.6873	0.0642076	0.0641328	-0.000365229	2	9.26512e-06	-2.34232e-08
2	0	0	1	1	32.7873	0.0592074	0.0590538	-0.000480497	2	9.22271e-06	-2.83751e-08
2	0	0	1	1	32.8873	0.0542072	0.0540945	-0.0006025	2	9.16842e-06	-3.25919e-08
2	0	0	1	1	32.9873	0.049207	0.0490918	-0.000725088	2	9.10184e-06	-3.55959e-08
2	0	0	1	1	33.0873	0.0442068	0.0440806	-0.00084025	2	9.02329e-06	-3.70387e-08
2	0	0	1	1	33.1873	0.0392066	0.0391288	-0.000939014	2	8.934e-06	-3.67425e-08
2	0	0	1	1	33.2873	0.0342064	0.0341472	-0.00101625	2	8.83581e-06	-3.47021e-08
2	0	0	1	1	33.3873	0.0292062	0.0290501	-0.00106766	2	8.73127e-06	-3.10158e-08
2	0	0	1	1	33.4873	0.024206	0.0241312	-0.00108933	2	8.62311e-06	-2.62869e-08
2	0	0	1	1	33.5873	0.0192058	0.0191051	-0.00108622	2	8.51398e-06	-2.07524e-08
2	0	0	1	1	33.6873	0.0142056	0.0141204	-0.00106396	2	8.4062e-06	-1.50235e-08
2	0	0	1	1	33.7873	0.00920544	0.00905408	-0.00102467	2	8.30147e-06	-9.27743e-09
2	0	0	1	1	33.8873	0.00420525	0.00413298	-0.000978986	2	8.20096e-06	-4.04613e-09
2	0	0	1	1	33.9873	-0.000794944	-0.000888826	-0.00093595	2	8.10524e-06	8.31896e-10
2	0	0	1	1	34.0873	-0.00579514	-0.00595622	-0.000882516	2	8.01445e-06	5.25646e-09
2	0	0	1	1	34.1873	-0.0107953	-0.0109558	-0.000832036	2	7.92861e-06	9.1156e-09
2	0	0	1	1	34.2873	-0.0157955	-0.015949	-0.000787477	2	7.84739e-06	1.25594e-08
2	0	0	1	1	34.3873	-0.0207957	-0.0209188	-0.000748455	2	7.77047e-06	1.56568e-08
2	0	0	1	1	34.4873	-0.0257959	-0.0259131	-0.000714014	2	7.69743e-06	1.85023e-08
2	0	0	1	1	34.5873	-0.0307961	-0.03092	-0.000677614	2	7.62786e-06	2.09519e-08
2	0	0	1	1	34.6873	-0.0357963	-0.0359641	-0.000647432	2	7.56144e-06	2.32843e-08
2	0	0	1	1	34.7873	-0.0407965	-0.0409149	-0.00062109	2	7.49785e-06	2.54118e-08
2	0	0	1	1	34.8873	-0.0457967	-0.0459505	-0.0005979	2	7.43679e-06	2.74738e-08
2	0	0	1	1	34.9873	-0.0507969	-0.0508716	-0.000575084	2	7.37801e-06	2.92554e-08
2	0	0	1	1	35.0873	-0.0557971	-0.0559263	-0.000556416	2	7.32125e-06	3.11183e-08
2	0	0	1	1	35.1873	-0.0607973	-0.0609332	-0.000538511	2	7.26638e-06	3.28132e-08
2	0	0	1	1	35.2873	-0.0657975	-0.0659858	-0.000522095	2	7.21323e-06	3.44509e-08
2	0	0	1	1	35.3873	-0.0707977	-0.0708868	-0.000506498	2	7.16163e-06	3.5904e-08
2	0	0	1	1	35.4873	-0.0757979	-0.0759086	-0.000492393	2	7.11147e-06	3.73769e-08
2	0	0	1	1	35.5873	-0.0807981	-0.0809187	-0.000480253	2	7.06263e-06	3.88614e-08
2	0	0	1	1	35.6873	-0.0857983	-0.0858833	-0.000468639	2	7.015e-06	4.02482e-08
2	0	0	1	1	35.7873	-0.0907984	-0.0909316	-0.000457247	2	6.96852e-06	4.15782e-08
2	0	0	1	1	35.8873	-0.0957986	-0.0958622	-0.0004472	2	6.92308e-06	4.28696e-08
2	0	0	0	1	35.9875	-0.100799	-0.100909	-0.000437727	2	6.87856e-06	4.41708e-08
2	0	0	0	1	36.0875	-0.105799	-0.105881	-0.000430803	2	6.83502e-06	4.5614e-08
2	0	0	0	1	36.1875	-0.110799	-0.11088	-0.000420655	2	6.79233e-06	4.66422e-08
2	0	0	0	1	36.2875	-0.115799	-0.115928	-0.000413225	2	6.75045e-06	4.79045e-08
2	0	0	0	1	36.3875	-0.1208	-0.120882	-0.000407631	2	6.7093e-06	4.92754e-08
2	0	0	0	1	36.4875	-0.1258	-0.125888	-0.000400309	2	6.66886e-06	5.03942e-08
2	0	0	0	1	36.5875	-0.1308	-0.130919	-0.000392467	2	6.62908e-06	5.13815e-08
2	0	0	0	1	36.6875	-0.1358	-0.135866	-0.000386268	2	6.58994e-06	5.24807e-08
2	0	0	0	1	36.7875	-0.1408	-0.140852	-0.000380471	2	6.55138e-06	5.359e-08
2	0	0	0	1	36.8875	-0.145801	-0.145897	-0.000376225	2	6.51337e-06	5.489e-08
2	0	0	0	1	36.9875	-0.150801	-0.150801	-0.000371035	2	6.47589e-06	5.59525e-08
2	0	0	0	1	37.0875	-0.155801	-0.155929	-0.00036443	2	6.43887e-06	5.68252e-08
2	0	0	0	1	37.1875	-0.160801	-0.160902	-0.00036118	2	6.40232e-06	5.81146e-08
2	0	0	0	1	37.2875	-0.165801	-0.165905	-0.000357213	2	6.3662e-06	5.92633e-08
2	0	0	0	1	37.3875	-0.170802	-0.170891	-0.00035324	2	6.33045e-06	6.03658e-08
2	0	0	0	1	37.4875	-0.175802	-0.175935	-0.000350119	2	6.29504e-06	6.1598e-08
2	0	0	0	1	37.5875	-0.180802	-0.180906	-0.000347621	2	6.25996e-06	6.2887e-08
2	0	0	0	1	37.6875	-0.185802	-0.185971	-0.000346742	2	6.22517e-06	6.44838e-08
2	0	0	0	1	37.7875	-0.190802	-0.190888	-0.000342244	2	6.19063e-06	6.53302e-08
2	0	0	0	1	37.8875	-0.195803	-0.195865	-0.000339182	2	6.15627e-06	6.64337e-08
2	1	0	1	0	37.9716	-0.200028	-0.200061	-0.000343507	2	6.12754e-06	6.87224e-08
2	1	0	1	0	38.0669	-0.195253	-0.195333	-0.000199044	2	6.10734e-06	3.88799e-08
2	1	0	1	0	38.1669	-0.190252	-0.190361	-0.000181916	2	6.08868e-06	3.46296e-08
2	1	0	1	0	38.2669	-0.185252	-0.185338	-0.00016956	2	6.0715e-06	3.14259e-08
2	1	0	1	0	38.3669	-0.180252	-0.180313	-0.000155766	2	6.05551e-06	2.80866e-08
2	1	0	1	0	38.4669	-0.175252	-0.175306	-0.000147356	2	6.04051e-06	2.58324e-08
2	1	0	1	0	38.5669	-0.170252	-0.17035	-0.000141063	2	6.02633e-06	2.403e-08
2	1	0	1	0	38.6669	-0.165251	-0.165326	-0.000134195	2	6.01295e-06	2.21859e-08
2	1	0	1	0	38.7669	-0.160251	-0.160309	-0.000127306	2	6.00023e-06	2.04083e-08
2	1	0	1	0	38.8669	-0.155251	-0.155363	-0.00012186	2	5.98814e-06	1.89325e-08
2	1	0	1	0	38.9669	-0.150251	-0.150252	-0.000115517	2	5.97666e-06	1.73566e-08
2	1	0	1	0	39.0669	-0.145251	-0.145332	-0.000110668	2	5.96573e-06	1.60836e-08
2	1	0	1	0	39.1669	-0.14025	-0.140333	-0.000104602	2	5.95528e-06	1.46792e-08
2	1	0	1	0	39.2669	-0.13525	-0.135299	-0.000100188	2	5.94532e-06	1.35553e-08
2	1	0	1	0	39.3669	-0.13025	-0.130298	-9.68744e-05	2	5.93582e-06	1.26226e-08
2	1	0	1	0	39.4669	-0.12525	-0.125273	-9.22853e-05	2	5.92677e-06	1.15609e-08
2	1	0	1	0	39.5669	-0.12025	-0.120298	-8.66346e-05	2	5.91814e-06	1.0422e-08
2	1	0	1	0	39.6669	-0.115249	-0.115342	-8.31901e-05	2	5.90989e-06	9.59532e-09
2	1	0	1	0	39.7669	-0.110249	-0.110341	-8.00265e-05	2	5.90203e-06	8.83024e-09
2	1	0	1	0	39.8669	-0.105249	-0.105343	-7.74405e-05	2	5.89452e-06	8.15781e-09
2	1	0	1	0	39.9669	-0.100249	-0.100295	-7.40031e-05	2	5.88736e-06	7.42211e-09
2	1	0	0	0	40.0671	-0.0952486	-0.095347	-6.96772e-05	3	5.8805e-06	6.64351e-09
2	1	0	0	0	40.1671	-0.0902484	-0.0903422	-6.82906e-05	3	5.87399e-06	6.16952e-09
2	1	0	0	0	40.2671	-0.0852482	-0.0852737	-6.51004e-05	3	5.86778e-06	5.55136e-09
2	1	0	0	0	40.3671	-0.080248	-0.0803547	-6.09318e-05	3	5.86186e-06	4.89615e-09
2	1	0	0	0	40.4671	-0.0752478	-0.0753382	-5.74696e-05	3	5.85626e-06	4.32966e-09
2	1	0	0	0	40.5671	-0.0702476	-0.0703344	-5.49878e-05	3	5.85092e-06	3.86754e-09
2	1	0	0	0	40.6671	-0.0652474	-0.065355	-5.22588e-05	3	5.84588e-06	3.41537e-09
2	1	0	0	0	40.7671	-0.0602473	-0.0603809	-4.87048e-05	3	5.84113e-06	2.94084e-09
2	1	0	0	0	40.8671	-0.0552471	-0.0553888	-4.76326e-05	3	5.83666e-06	2.63831e-09
2	1	0	0	0	40.9671	-0.0502469	-0.050332	-4.43188e-05	3	5.83252e-06	2.23065e-09
2	1	0	0	0	41.0671	-0.0452467	-0.0452879	-4.09591e-05	3	5.82867e-06	1.85495e-09
2	1	0	0	0	41.1671	-0.0402465	-0.0403923	-3.72232e-05	3	5.82515e-06	1.50353e-09
2	1	0	0	0	41.2671	-0.0352463	-0.03538	-3.34148e-05	3	5.822e-06	1.18222e-09
2	1	0	0	0	41.3671	-0.0302461	-0.0303762	-2.97814e-05	3	5.81928e-06	9.04644e-10
2	1	0	0	0	41.4671	-0.0252459	-0.0253364	-2.3334e-05	3	5.81701e-06	5.91199e-10
2	1	0	0	0	41.5671	-0.0202457	-0.0203029	-1.7897e-05	3	5.81531e-06	3.63362e-10
2	1	0	0	0	41.6671	-0.0152455	-0.0153723	-1.00278e-05	3	5.81428e-06	1.54149e-10
2	1	0	0	0	41.7671	-0.0102453	-0.010342	-8.67225e-07	3	5.81411e-06	8.96881e-12
2	1	0	0	0	41.8671	-0.00524512	-0.00535619	1.09199e-05	3	5.81497e-06	-5.84893e-11
2	1	0	0	0	41.9671	-0.00024271	-0.000311058	2.70984e-05	3	5.81721e-06	-8.42916e-12
2	1	0	0	0	42.0671	0.00475527	0.00473195	4.5589e-05	3	5.82114e-06	2.15725e-10
2	1	0	0	0	42.1671	0.00975546	0.00969333	7.10463e-05	3	5.82724e-06	6.88675e-10
2	1	0	0	0	42.2671	0.0147557	0.0147088	0.00010173	3	5.83616e-06	1.49633e-09
2	1	0	0	0	42.3671	0.0197558	0.0196882	0.000142972	3	5.84864e-06	2.81486e-09
2	1	0	0	0	42.4671	0.024756	0.0246623	0.000193493	3	5.86562e-06	4.77198e-09
2	1	0	0	0	42.5671	0.0297562	0.0297329	0.000254262	3	5.88821e-06	7.55994e-09
2	1	0	0	0	42.6671	0.0347564	0.0346889	0.000328122	3	5.91757e-06	1.13822e-08
2	1	0	0	0	42.7671	0.0397566	0.0396832	0.000415707	3	5.95504e-06	1.64966e-08
2	1	0	0	0	42.8671	0.0447568	0.0446912	0.000514602	3	6.00181e-06	2.29982e-08
2	1	0	0	0	42.9671	0.049757	0.0497067	0.00062325	3	6.05899e-06	3.09797e-08
2	1	0	0	0	43.0671	0.0547572	0.0547401	0.000737693	3	6.12746e-06	4.03814e-08
2	1	0	0	0	43.1671	0.0597574	0.0596835	0.00085096	3	6.20733e-06	5.07882e-08
2	1	0	0	0	43.2671	0.0647576	0.0647679	0.000960474	3	6.29835e-06	6.22079e-08
2	1	0	0	0	43.3671	0.0697578	0.0697791	0.00105569	3	6.39958e-06	7.36648e-08
2	1	0	0	0	43.4671	0.074758	0.0746938	0.00113272	3	6.50949e-06	8.46072e-08
2	1	0	0	0	43.5671	0.0797581	0.0796976	0.00118941	3	6.6262e-06	9.47931e-08
2	1	0	0	0	43.6671	0.0847583	0.0847268	0.00122621	3	6.74752e-06	1.03893e-07
2	1	0	0	0	43.7671	0.0897585	0.0896829	0.00124006	3	6.8713e-06	1.11212e-07
2	1	0	0	0	43.8671	0.0947587	0.0947121	0.00123629	3	6.99558e-06	1.17092e-07
2	1	0	0	0	43.9671	0.0997589	0.0996777	0.00121877	3	7.11872e-06	1.21484e-07
2	1	0	0	0	44.0671	0.104759	0.104675	0.00118977	3	7.23955e-06	1.24539e-07
2	1	0	0	0	44.1671	0.109759	0.10967	0.0011555	3	7.35719e-06	1.26724e-07
2	1	0	0	0	44.2671	0.11476	0.114702	0.00111801	3	7.47118e-06	1.28238e-07
2	1	0	0	0	44.3671	0.11976	0.11971	0.00107822	3	7.5813e-06	1.29073e-07
2	1	0	0	0	44.4671	0.12476	0.124644	0.00103959	3	7.68753e-06	1.29579e-07
2	1	0	0	0	44.5671	0.12976	0.129702	0.0010039	3	7.78999e-06	1.30208e-07
2	1	0	0	0	44.6671	0.13476	0.134728	0.000968987	3	7.88884e-06	1.30549e-07
2	1	0	0	0	44.7671	0.13976	0.139657	0.000936536	3	7.98432e-06	1.30794e-07
2	1	0	0	0	44.8671	0.144761	0.144693	0.000906327	3	8.0767e-06	1.31139e-07
2	1	0	0	0	44.9671	0.149761	0.149638	0.000878227	3	8.1662e-06	1.31416e-07
2	1	0	0	0	45.0671	0.154761	0.154713	0.00085374	3	8.25311e-06	1.32085e-07
2	1	0	1	0	45.1673	0.159761	0.159659	0.000830521	3	8.33773e-06	1.326e-07
2	1	0	1	0	45.2673	0.164761	0.16467	0.000809908	3	8.41999e-06	1.33367e-07
2	1	0	1	0	45.3673	0.169762	0.169654	0.000788807	3	8.50023e-06	1.33825e-07
2	1	0	1	0	45.4673	0.174762	0.174616	0.000771643	3	8.57862e-06	1.34741e-07
2	1	0	1	0	45.5673	0.179762	0.179645	0.00075621	3	8.65529e-06	1.35849e-07
2	1	0	1	0	45.6673	0.184762	0.184655	0.000740865	3	8.73038e-06	1.36805e-07
2	1	0	1	0	45.7673	0.189762	0.189697	0.000726579	3	8.80403e-06	1.3783e-07
2	1	0	1	0	45.8673	0.194763	0.194624	0.000711762	3	8.87634e-06	1.38526e-07
2	1	0	1	0	45.9673	0.199763	0.19965	0.000702598	3	8.94744e-06	1.40273e-07
2	1	0	1	0	46.0673	0.204763	0.204703	0.000691242	3	9.01742e-06	1.41499e-07
2	1	0	1	0	46.1673	0.209763	0.209666	0.000680395	3	9.08634e-06	1.42655e-07
2	1	0	1	0	46.2673	0.214763	0.214661	0.000671231	3	9.1543e-06	1.44087e-07
2	1	0	1	0	46.3673	0.219764	0.219677	0.000663306	3	9.2214e-06	1.45713e-07
2	1	0	1	0	46.4673	0.224764	0.224656	0.000656206	3	9.28765e-06	1.4742e-07
2	1	0	1	0	46.5673	0.229764	0.229714	0.000649308	3	9.35316e-06	1.49155e-07
2	1	0	1	0	46.6673	0.234764	0.234682	0.000641762	3	9.41795e-06	1.5061e-07
2	1	0	1	0	46.7673	0.239764	0.239697	0.000634313	3	9.48208e-06	1.52043e-07
2	1	0	1	0	46.8673	0.244764	0.244637	0.000629602	3	9.54563e-06	1.54024e-07
2	1	0	1	0	46.9673	0.249765	0.249717	0.00062278	3	9.6086e-06	1.55519e-07
2	1	0	1	0	47.0673	0.254765	0.254642	0.000619042	3	9.6711e-06	1.57634e-07
2	1	0	1	0	47.1673	0.259765	0.259718	0.000616817	3	9.7332e-06	1.60199e-07
2	1	0	1	0	47.2673	0.264765	0.264668	0.000611007	3	9.79489e-06	1.61714e-07
2	1	0	1	0	47.3673	0.269765	0.269689	0.000608684	3	9.85631e-06	1.64155e-07
2	1	0	1	0	47.4673	0.274766	0.274721	0.000607278	3	9.91746e-06	1.66832e-07
2	1	0	1	0	47.5673	0.279766	0.279677	0.000606262	3	9.97842e-06	1.69558e-07
2	1	0	1	0	47.6673	0.284766	0.28465	0.000604364	3	1.00393e-05	1.72032e-07
2	1	0	1	0	47.7673	0.289766	0.289689	0.00060315	3	1.01001e-05	1.74726e-07
2	1	0	1	0	47.8673	0.294766	0.294627	0.00060398	3	1.01609e-05	1.77949e-07
2	1	0	1	0	47.9668	0.299742	0.299665	0.000606938	3	1.02215e-05	1.81878e-07
2	0	0	1	0	48.0579	0.295716	0.295554	0.000469245	3	1.02663e-05	1.38687e-07
2	0	0	1	0	48.1579	0.290716	0.290657	0.000441023	3	1.03116e-05	1.28186e-07
2	0	0	1	0	48.2579	0.285716	0.285542	0.000424096	3	1.03547e-05	1.21097e-07
2	0	0	1	0	48.3579	0.280716	0.280566	0.000407271	3	1.03961e-05	1.14266e-07
2	0	0	1	0	48.4579	0.275716	0.275594	0.000395925	3	1.04361e-05	1.09115e-07
2	0	0	1	0	48.5579	0.270715	0.270596	0.000385405	3	1.0475e-05	1.04289e-07
2	0	0	1	0	48.6579	0.265715	0.265583	0.000374778	3	1.05127e-05	9.95347e-08
2	0	0	1	0	48.7579	0.260715	0.260612	0.000366158	3	1.05496e-05	9.54252e-08
2	0	0	1	0	48.8579	0.255715	0.255619	0.000357017	3	1.05856e-05	9.12603e-08
2	0	0	1	0	48.9579	0.250715	0.250564	0.000349808	3	1.06208e-05	8.76494e-08
2	0	0	1	0	49.0579	0.245715	0.245543	0.000343126	3	1.06553e-05	8.42523e-08
2	0	0	1	0	49.1579	0.240714	0.240583	0.00033585	3	1.06891e-05	8.07999e-08
2	0	0	1	0	49.2579	0.235714	0.235574	0.000330795	3	1.07223e-05	7.79267e-08
2	0	0	1	0	49.3579	0.230714	0.230586	0.000325923	3	1.07549e-05	7.51534e-08
2	0	0	1	0	49.4579	0.225714	0.2256	0.000319011	3	1.07869e-05	7.1969e-08
2	0	0	1	0	49.5579	0.220714	0.220588	0.000313717	3	1.08183e-05	6.92023e-08
2	0	0	1	0	49.6579	0.215713	0.215516	0.000307494	3	1.08492e-05	6.62701e-08
2	0	0	1	0	49.7579	0.210713	0.21058	0.00030222	3	1.08796e-05	6.36413e-08
2	0	0	1	0	49.8579	0.205713	0.205621	0.000296105	3	1.09094e-05	6.08854e-08
2	0	0	1	0	49.9579	0.200713	0.200542	0.000293264	3	1.09388e-05	5.88119e-08
2	0	0	1	0	50.0579	0.195713	0.195548	0.000287227	3	1.09676e-05	5.61666e-08
2	0	0	1	0	50.1579	0.190712	0.190581	0.00028263	3	1.09959e-05	5.38641e-08
2	0	0	1	0	50.2579	0.185712	0.185611	0.000277828	3	1.10237e-05	5.1568e-08
2	0	0	1	0	50.3579	0.180712	0.180589	0.000273601	3	1.10511e-05	4.94091e-08
2	0	0	1	0	50.4579	0.175712	0.175511	0.000266881	3	1.10779e-05	4.68405e-08
2	0	0	1	0	50.5579	0.170712	0.170588	0.000262469	3	1.11041e-05	4.47741e-08
2	0	0	1	0	50.6579	0.165711	0.165598	0.000256272	3	1.11299e-05	4.24383e-08
2	0	0	1	0	50.7579	0.160711	0.160585	0.000250586	3	1.11551e-05	4.02404e-08
2	0	0	0	0	50.8581	0.155711	0.155639	0.000244699	3	1.11797e-05	3.80846e-08
2	0	0	0	0	50.9581	0.150711	0.150591	0.000237594	3	1.12037e-05	3.57796e-08
2	0	0	0	0	51.0581	0.145711	0.145606	0.000231947	3	1.1227e-05	3.37728e-08
2	0	0	0	0	51.1581	0.14071	0.140547	0.000223923	3	1.12496e-05	3.14716e-08
2	0	0	0	0	51.2581	0.13571	0.135582	0.000216226	3	1.12715e-05	2.93164e-08
2	0	0	0	0	51.3581	0.13071	0.130595	0.000207151	3	1.12924e-05	2.70529e-08
2	0	0	0	0	51.4581	0.12571	0.125584	0.000197649	3	1.13124e-05	2.48216e-08
2	0	0	0	0	51.5581	0.12071	0.120569	0.00018347	3	1.13312e-05	2.21207e-08
2	0	0	0	0	51.6581	0.11571	0.115558	0.000168585	3	1.13486e-05	1.94814e-08
2	0	0	0	0	51.7581	0.110709	0.110619	0.000152226	3	1.13644e-05	1.68392e-08
2	0	0	0	0	51.8581	0.105709	0.105553	0.000130717	3	1.13783e-05	1.37976e-08
2	0	0	0	0	51.9581	0.100709	0.100615	0.00010349	3	1.13898e-05	1.04126e-08
2	0	0	0	0	52.0581	0.0957088	0.0955475	6.94654e-05	3	1.13984e-05	6.63724e-09
2	0	0	0	0	52.1581	0.0907086	0.0906487	3.23181e-05	3	1.14034e-05	2.92959e-09
2	0	0	0	0	52.2581	0.0857084	0.0856544	-1.70633e-05	3	1.1404e-05	-1.46155e-09
2	0	0	0	0	52.3581	0.0807082	0.0805817	-7.75006e-05	3	1.13992e-05	-6.24513e-09
2	0	0	0	0	52.4581	0.075708	0.0755981	-0.000149704	3	1.13879e-05	-1.13173e-08
2	0	0	0	0	52.5581	0.0707078	0.0706102	-0.000232836	3	1.13687e-05	-1.64406e-08
2	0	0	0	0	52.6581	0.0657076	0.0656764	-0.000329376	3	1.13405e-05	-2.16322e-08
2	0	0	0	0	52.7581	0.0607074	0.0606037	-0.000440232	3	1.13018e-05	-2.66797e-08
2	0	0	0	0	52.8581	0.0557072	0.0556243	-0.000558386	3	1.12518e-05	-3.10598e-08
2	0	0	0	0	52.9581	0.050707	0.0505845	-0.000677736	3	1.11897e-05	-3.42829e-08
2	0	0	0	0	53.0581	0.0457068	0.0456305	-0.000795154	3	1.11156e-05	-3.62832e-08
2	0	0	0	0	53.1581	0.0407066	0.0406034	-0.000902303	3	1.10302e-05	-3.66366e-08
2	0	0	0	0	53.2581	0.0357065	0.0356038	-0.000990494	3	1.09352e-05	-3.52654e-08
2	0	0	0	0	53.3581	0.0307063	0.0306117	-0.00105132	3	1.08326e-05	-3.21827e-08
2	0	0	0	0	53.4581	0.0257061	0.0255719	-0.00108708	3	1.07253e-05	-2.77986e-08
2	0	0	0	0	53.5581	0.0207059	0.0205702	-0.00109548	3	1.06158e-05	-2.25343e-08
2	0	0	0	0	53.6581	0.0157057	0.0155442	-0.00108249	3	1.05066e-05	-1.68264e-08
2	0	0	0	0	53.7581	0.0107055	0.0105796	-0.00105073	3	1.03998e-05	-1.11163e-08
2	0	0	0	0	53.8581	0.00570531	0.00567971	-0.001008	3	1.02966e-05	-5.72512e-09
2	0	0	0	0	53.9581	0.000705114	0.000680158	-0.000961432	3	1.01979e-05	-6.53926e-10
2	0	0	0	0	54.0581	-0.00429508	-0.00436922	-0.0009116	3	1.0104e-05	3.98298e-09
2	0	0	0	0	54.1581	-0.00929528	-0.00943661	-0.000864621	3	1.00151e-05	8.15909e-09
2	0	0	0	0	54.2581	-0.0142955	-0.0144213	-0.000816727	3	9.93089e-06	1.17783e-08
2	0	0	0	0	54.3581	-0.0192957	-0.0194039	-0.000776319	3	9.85109e-06	1.50636e-08
2	0	0	0	0	54.4581	-0.0242959	-0.0244141	-0.00073756	3	9.77532e-06	1.80068e-08
2	0	0	0	0	54.5581	-0.0292961	-0.0294072	-0.000702337	3	9.70315e-06	2.06538e-08
2	0	0	0	0	54.6581	-0.0342962	-0.0344768	-0.000671873	3	9.63428e-06	2.3164e-08
2	0	0	0	0	54.7581	-0.0392964	-0.0394498	-0.000645438	3	9.56834e-06	2.54624e-08
2	0	0	0	0	54.8581	-0.0442966	-0.0444186	-0.000620095	3	9.50503e-06	2.75438e-08
2	0	0	0	0	54.9581	-0.0492968	-0.0494415	-0.000596072	3	9.44409e-06	2.94707e-08
2	0	0	0	0	55.0581	-0.054297	-0.0544368	-0.000575866	3	9.38525e-06	3.13483e-08
2	0	0	0	0	55.1581	-0.0592972	-0.059466	-0.000558084	3	9.32839e-06	3.3187e-08
2	0	0	0	0	55.2581	-0.0642974	-0.0644507	-0.000540091	3	9.27331e-06	3.48093e-08
2	0	0	0	0	55.3581	-0.0692976	-0.069393	-0.000525589	3	9.21983e-06	3.64722e-08
2	0	0	0	0	55.4581	-0.0742978	-0.0744106	-0.000510487	3	9.16783e-06	3.79856e-08
2	0	0	0	0	55.5581	-0.079298	-0.0794451	-0.000499019	3	9.1172e-06	3.96446e-08
2	0	0	0	0	55.6581	-0.0842982	-0.0844012	-0.000486787	3	9.06785e-06	4.10854e-08
2	0	0	0	0	55.7581	-0.0892984	-0.0894389	-0.000474251	3	9.01968e-06	4.24165e-08
2	0	0	0	0	55.8581	-0.0942986	-0.0944586	-0.000464009	3	8.9726e-06	4.38297e-08
2	0	0	1	0	55.9583	-0.0992988	-0.0993681	-0.000452757	3	8.92645e-06	4.49896e-08
2	0	0	1	0	56.0583	-0.104299	-0.10442	-0.00044625	3	8.88136e-06	4.65972e-08
2	0	0	1	0	56.1583	-0.109299	-0.109403	-0.000436828	3	8.83714e-06	4.77904e-08
2	0	0	1	0	56.2583	-0.114299	-0.114419	-0.000428254	3	8.79376e-06	4.90002e-08
2	0	0	1	0	56.3583	-0.1193	-0.11937	-0.000420107	3	8.75113e-06	5.01484e-08
2	0	0	1	0	56.4583	-0.1243	-0.124393	-0.000413646	3	8.70926e-06	5.14548e-08
2	0	0	1	0	56.5583	-0.1293	-0.129416	-0.000407502	3	8.66806e-06	5.27374e-08
2	0	0	1	0	56.6583	-0.1343	-0.134379	-0.00039976	3	8.62753e-06	5.37192e-08
2	0	0	1	0	56.7583	-0.1393	-0.139396	-0.000393472	3	8.58762e-06	5.48485e-08
2	0	0	1	0	56.8583	-0.144301	-0.14438	-0.000389458	3	8.54829e-06	5.623e-08
2	0	0	1	0	56.9583	-0.149301	-0.149401	-0.000382303	3	8.50953e-06	5.71163e-08
2	0	0	1	0	57.0583	-0.154301	-0.154342	-0.000378076	3	8.47128e-06	5.83529e-08
2	0	0	1	0	57.1583	-0.159301	-0.159438	-0.000374693	3	8.43347e-06	5.97403e-08
2	0	0	1	0	57.2583	-0.164301	-0.164447	-0.000367958	3	8.39614e-06	6.05096e-08
2	0	0	1	0	57.3583	-0.169301	-0.16937	-0.000364436	3	8.35923e-06	6.17246e-08
2	0	0	1	0	57.4583	-0.174302	-0.174403	-0.000363648	3	8.3227e-06	6.34212e-08
2	0	0	1	0	57.5583	-0.179302	-0.179412	-0.000359055	3	8.28652e-06	6.44187e-08
2	0	0	1	0	57.6583	-0.184302	-0.184349	-0.000356294	3	8.25064e-06	6.56824e-08
2	0	0	1	0	57.7583	-0.189302	-0.189348	-0.000352062	3	8.21502e-06	6.66623e-08
2	0	0	1	0	57.8583	-0.194302	-0.194401	-0.000350458	3	8.17965e-06	6.81294e-08
2	0	0	1	0	57.9583	-0.199303	-0.199432	-0.000349144	3	8.14449e-06	6.96306e-08
2	1	0	0	1	58.0377	-0.196753	-0.196808	-0.000216601	3	8.12483e-06	4.26288e-08
2	1	0	0	1	58.1377	-0.191752	-0.191807	-0.000195388	3	8.10479e-06	3.74767e-08
2	1	0	0	1	58.2377	-0.186752	-0.186824	-0.000181167	3	8.08643e-06	3.38463e-08
2	1	0	0	1	58.3377	-0.181752	-0.181786	-0.000169459	3	8.06931e-06	3.08054e-08
2	1	0	0	1	58.4377	-0.176752	-0.176785	-0.000162035	3	8.05323e-06	2.86453e-08
2	1	0	0	1	58.5377	-0.171752	-0.171849	-0.000152546	3	8.03802e-06	2.62148e-08
2	1	0	0	1	58.6377	-0.166751	-0.166821	-0.00014374	3	8.0236e-06	2.39789e-08
2	1	0	0	1	58.7377	-0.161751	-0.161845	-0.000137381	3	8.00988e-06	2.22346e-08
2	1	0	0	1	58.8377	-0.156751	-0.156787	-0.000130657	3	7.9968e-06	2.04852e-08
2	1	0	0	1	58.9377	-0.151751	-0.151826	-0.000125889	3	7.98437e-06	1.91133e-08
2	1	0	0	1	59.0377	-0.146751	-0.146797	-0.000120297	3	7.97246e-06	1.76592e-08
2	1	0	0	1	59.1377	-0.14175	-0.141811	-0.000113862	3	7.96106e-06	1.61469e-08
2	1	0	0	1	59.2377	-0.13675	-0.136797	-0.000110976	3	7.95017e-06	1.51811e-08
2	1	0	0	1	59.3377	-0.13175	-0.131855	-0.000106863	3	7.93976e-06	1.40904e-08
2	1	0	0	1	59.4377	-0.12675	-0.126793	-0.00010131	3	7.92982e-06	1.28454e-08
2	1	0	0	1	59.5377	-0.12175	-0.121813	-9.61625e-05	3	7.92029e-06	1.17138e-08
2	1	0	0	1	59.6377	-0.116749	-0.116813	-9.3013e-05	3	7.91117e-06	1.08652e-08
2	1	0	0	1	59.7377	-0.111749	-0.111818	-9.03034e-05	3	7.90245e-06	1.00976e-08
2	1	0	0	1	59.8377	-0.106749	-0.106828	-8.65233e-05	3	7.89411e-06	9.24312e-09
2	1	0	0	1	59.9377	-0.101749	-0.101839	-8.10157e-05	3	7.8861e-06	8.25057e-09
2	1	0	1	1	60.0379	-0.0967487	-0.0968365	-7.74228e-05	3	7.87841e-06	7.49735e-09
2	1	0	1	1	60.1379	-0.0917485	-0.0918412	-7.49764e-05	3	7.87108e-06	6.88592e-09
2	1	0	1	1	60.2379	-0.0867483	-0.0868363	-7.21431e-05	3	7.86407e-06	6.26464e-09
2	1	0	1	1	60.3379	-0.0817481	-0.0818654	-6.86209e-05	3	7.85736e-06	5.61768e-09
2	1	0	1	1	60.4379	-0.0767479	-0.0768595	-6.57152e-05	3	7.85094e-06	5.05083e-09
2	1	0	1	1	60.5379	-0.0717477	-0.0718366	-6.42155e-05	3	7.84482e-06	4.61302e-09
2	1	0	1	1	60.6379	-0.0667475	-0.0668583	-6.03718e-05	3	7.839e-06	4.03636e-09
2	1	0	0	1	60.7152	-0.0628723	-0.0630312	-4.83215e-05	3	7.83471e-06	3.04576e-09