File: AutoAnalysis Examples/EC/C003C-10ppb-A_C01.mpt
EC-Lab ASCII FILE
Nb header lines : 59

Cyclic Voltammetry

Run on channel : 1 (SN 22398)
User :
CE vs. WE compliance from -10 V to 10 V
Electrode connection : standard
Ewe ctrl range : min = -1.00 V, max = 1.00 V
Safety Limits :
	Ewe min = -2.00 V
	Ewe max = 2.00 V
	|I| = 50.000 mA
	for t > 10 ms
Acquisition started on : 11/21/2018 10:30:27
Technique started on : 11/21/2018 10:30:27
Saved on :
	File : C003C-10ppb-A_C01.mpr
	Directory : \\ECCOMPUTER\Users\Lab User\Google Drive\Electrochemical Data\EC-Lab\Data\FREDsense\Tim\2018.11.21 - EC comparison to High Throughput\
	Host : 172.16.1.30
Device : SP-50 (SN 0301030103010301)
Address : USB
EC-Lab for windows v11.02 (software)
Internet server v11.02 (firmware)
Command interpretor v11.02 (firmware)
Electrode material : Au/Pd
Initial state :
Electrolyte : NaCl (0.2M)
Comments : Fe(CN)63-/Fe(CN)64- 5.10-3 M
Reference electrode : SCE Saturated Calomel Electrode (0.241 V)
Electrode surface area : 0.001 cm²
Characteristic mass : 0.001 g
Equivalent Weight : 0.000 g/eq.
Density : 0.000 g/cm3
Cycle Definition : Charge/Discharge alternance
Ei (V)              -0.100
vs.                 Ref
dE/dt               50.000
dE/dt unit          mV/s
E1 (V)              0.300
vs.                 Ref
Step percent        50
N                   10
E range min (V)     -1.000
E range max (V)     1.000
I Range             Auto
I Range min         Unset
I Range max         Unset
I Range init        Unset
Bandwidth           5
E2 (V)              -0.200
vs.                 Ref
nc cycles           2
Reverse Scan        1
Ef (V)              0.000
vs.                 Eoc

mode	ox/red	error	control changes	counter inc.	time/s	control/V	Ewe/V	<I>/mA	cycle number	(Q-Qo)/C	P/W
2	1	0	0	0	0.000000000000000E+000	-0.0985032	-0.0987984	-0.000113114	1	0.0000000E+000	1.11755e-08
2	1	0	0	0	0.1112	-0.0929531	-0.0931512	-3.04504e-06	1	4.35961e-10	2.83649e-10
2	1	0	1	0	0.2267	-0.087178	-0.08733	3.33143e-05	1	4.6515e-09	-2.90934e-09
2	1	0	1	0	0.3267	-0.0821778	-0.0823855	4.14821e-05	1	8.69815e-09	-3.41753e-09
2	1	0	1	0	0.4267	-0.0771777	-0.0773128	4.5725e-05	1	1.33314e-08	-3.53513e-09
2	1	0	1	0	0.5267	-0.0721776	-0.0723493	4.97135e-05	1	1.83366e-08	-3.59674e-09
2	1	0	1	0	0.6267	-0.0671774	-0.0673349	5.17131e-05	1	2.36604e-08	-3.4821e-09
2	1	0	1	0	0.7267	-0.0621773	-0.0623608	5.41472e-05	1	2.92924e-08	-3.37666e-09
2	1	0	1	0	0.8267	-0.0571771	-0.0573708	5.6394e-05	1	3.51645e-08	-3.23537e-09
2	1	0	1	0	0.9267	-0.052177	-0.0523172	6.26665e-05	1	4.13057e-08	-3.27854e-09
2	1	0	1	0	1.0267	-0.0471769	-0.0473346	6.34013e-05	1	4.77001e-08	-3.00108e-09
2	1	0	1	0	1.1267	-0.0421767	-0.0423383	6.57065e-05	1	5.43497e-08	-2.7819e-09
2	1	0	1	0	1.2267	-0.0371766	-0.0374193	6.76954e-05	1	6.13235e-08	-2.53311e-09
2	1	0	1	0	1.3267	-0.0321765	-0.0324081	7.22315e-05	1	6.86319e-08	-2.34088e-09
2	1	0	1	0	1.4267	-0.0271763	-0.0273407	7.75466e-05	1	7.63633e-08	-2.12018e-09
2	1	0	1	0	1.5267	-0.0221762	-0.0223379	8.37944e-05	1	8.46387e-08	-1.87179e-09
2	1	0	1	0	1.6267	-0.0171761	-0.0173278	8.92243e-05	1	9.35772e-08	-1.54606e-09
2	1	0	1	0	1.7267	-0.0121759	-0.0123759	0.000102566	1	1.03394e-07	-1.26935e-09
2	1	0	1	0	1.8267	-0.00717578	-0.0073499	0.000115065	1	1.14382e-07	-8.45715e-10
2	1	0	1	0	1.9267	-0.00217564	-0.00231324	0.000132084	1	1.2693e-07	-3.05543e-10
2	1	0	1	0	2.0267	0.00282449	0.0026598	0.000156814	1	1.41627e-07	4.17093e-10
2	1	0	1	0	2.1267	0.00782463	0.00771129	0.000190525	1	1.59097e-07	1.4692e-09
2	1	0	1	0	2.2267	0.0128248	0.0126706	0.000233122	1	1.80305e-07	2.95378e-09
2	1	0	1	0	2.3267	0.0178249	0.0176892	0.000288382	1	2.06473e-07	5.10124e-09
2	1	0	1	0	2.4267	0.022825	0.0227248	0.000361701	1	2.3911e-07	8.21958e-09
2	1	0	1	0	2.5267	0.0278252	0.027684	0.00045439	1	2.8011e-07	1.25793e-08
2	1	0	1	0	2.6267	0.0328253	0.0327143	0.000573722	1	3.3156e-07	1.87689e-08
2	1	0	1	0	2.7267	0.0378254	0.0376651	0.000713619	1	3.95874e-07	2.68785e-08
2	1	0	1	0	2.8267	0.0428256	0.0426562	0.000876496	1	4.75476e-07	3.7388e-08
2	1	0	1	0	2.9267	0.0478257	0.0476292	0.00106121	1	5.72558e-07	5.05448e-08
2	1	0	1	0	3.0267	0.0528258	0.0526902	0.00126132	1	6.89015e-07	6.64593e-08
2	1	0	1	0	3.1267	0.057826	0.0576993	0.0014621	1	8.25552e-07	8.43623e-08
2	1	0	1	0	3.2267	0.0628261	0.0626713	0.00165548	1	9.81894e-07	1.03751e-07
2	1	0	1	0	3.3267	0.0678262	0.0677101	0.00182842	1	1.15667e-06	1.23802e-07
2	1	0	1	0	3.4267	0.0728264	0.0727075	0.00196903	1	1.34715e-06	1.43163e-07
2	1	0	1	0	3.5267	0.0778265	0.0776954	0.0020731	1	1.54984e-06	1.61071e-07
2	1	0	1	0	3.6267	0.0828267	0.0826992	0.00213395	1	1.76075e-06	1.76476e-07
2	1	0	1	0	3.7267	0.0878268	0.0876743	0.00215864	1	1.97591e-06	1.89257e-07
2	1	0	1	0	3.8267	0.0928269	0.0927269	0.00215008	1	2.19182e-06	1.9937e-07
2	1	0	1	0	3.9267	0.0978271	0.0976999	0.00211609	1	2.40554e-06	2.06742e-07
2	1	0	1	0	4.0267	0.102827	0.102708	0.00206673	1	2.61495e-06	2.12269e-07
2	1	0	1	0	4.1267	0.107827	0.107665	0.00200489	1	2.81871e-06	2.15857e-07
2	1	0	1	0	4.2267	0.112827	0.112717	0.00193782	1	3.01606e-06	2.18425e-07
2	1	0	1	0	4.3267	0.117828	0.117698	0.00187074	1	3.20674e-06	2.20183e-07
2	1	0	1	0	4.4267	0.122828	0.122678	0.00180459	1	3.39077e-06	2.21382e-07
2	1	0	1	0	4.5267	0.127828	0.127671	0.00174404	1	3.56839e-06	2.22663e-07
2	1	0	1	0	4.6267	0.132828	0.132741	0.00168518	1	3.74e-06	2.23693e-07
2	1	0	1	0	4.7267	0.137828	0.137688	0.00163169	1	3.90604e-06	2.24664e-07
2	1	0	1	0	4.8267	0.142828	0.142698	0.00158158	1	4.06698e-06	2.25688e-07
2	1	0	1	0	4.9267	0.147828	0.14766	0.00153935	1	4.22322e-06	2.27301e-07
2	1	0	1	0	5.0267	0.152829	0.152754	0.0015022	1	4.37523e-06	2.29468e-07
2	1	0	1	0	5.1267	0.157829	0.157718	0.00146003	1	4.52339e-06	2.30273e-07
2	1	0	1	0	5.2267	0.162829	0.162696	0.00142638	1	4.66799e-06	2.32067e-07
2	1	0	1	0	5.3267	0.167829	0.167726	0.00139561	1	4.80937e-06	2.34081e-07
2	1	0	1	0	5.4267	0.172829	0.172687	0.00136683	1	4.94773e-06	2.36033e-07
2	1	0	1	0	5.5267	0.177829	0.1777	0.001339	1	5.08331e-06	2.37941e-07
2	1	0	1	0	5.6267	0.182829	0.182659	0.00131418	1	5.21632e-06	2.40047e-07
2	1	0	1	0	5.7267	0.187829	0.187689	0.00129336	1	5.34691e-06	2.42748e-07
2	1	0	1	0	5.8267	0.19283	0.192687	0.00127306	1	5.4753e-06	2.45302e-07
2	1	0	1	0	5.9267	0.19783	0.197697	0.00125306	1	5.60165e-06	2.47726e-07
2	1	0	1	0	6.0267	0.20283	0.202658	0.00123527	1	5.72617e-06	2.50337e-07
2	1	0	1	0	6.1267	0.20783	0.2077	0.00121893	1	5.84912e-06	2.53171e-07
2	1	0	1	0	6.2267	0.21283	0.212708	0.00120301	1	5.9703e-06	2.55889e-07
2	1	0	1	0	6.3267	0.21783	0.217706	0.00118817	1	6.09001e-06	2.58672e-07
2	1	0	1	0	6.4267	0.22283	0.222696	0.00117479	1	6.20837e-06	2.6162e-07
2	1	0	1	0	6.5267	0.227831	0.227698	0.00116347	1	6.32544e-06	2.6492e-07
2	1	0	1	0	6.6267	0.232831	0.232671	0.0011507	1	6.44136e-06	2.67733e-07
2	1	0	1	0	6.7267	0.237831	0.237694	0.0011418	1	6.55619e-06	2.71399e-07
2	1	0	1	0	6.8267	0.242831	0.242657	0.00113385	1	6.67022e-06	2.75136e-07
2	1	0	1	0	6.9267	0.247831	0.247738	0.00112034	1	6.78312e-06	2.77552e-07
2	1	0	1	0	7.0267	0.252831	0.252769	0.00111102	1	6.89484e-06	2.8083e-07
2	1	0	1	0	7.1267	0.257831	0.257738	0.00110237	1	7.00565e-06	2.84122e-07
2	1	0	1	0	7.2267	0.262831	0.262755	0.00109415	1	7.1156e-06	2.87493e-07
2	1	0	1	0	7.3267	0.267832	0.267687	0.00108794	1	7.2248e-06	2.91226e-07
2	1	0	0	0	7.4269	0.272832	0.272706	0.00108177	1	7.33353e-06	2.95006e-07
2	1	0	0	0	7.5269	0.277832	0.277733	0.00107462	1	7.44141e-06	2.98457e-07
2	1	0	0	0	7.6269	0.282832	0.282728	0.00106874	1	7.54876e-06	3.02163e-07
2	1	0	0	0	7.7269	0.287832	0.287684	0.0010626	1	7.65554e-06	3.05693e-07
2	1	0	0	0	7.8269	0.292832	0.2927	0.00105913	1	7.76186e-06	3.10007e-07
2	1	0	0	0	7.9269	0.297832	0.297703	0.00105461	1	7.86776e-06	3.13961e-07
2	0	0	1	0	8.0063	0.298182	0.298028	0.000927213	1	7.94745e-06	2.76336e-07
2	0	0	1	0	8.1063	0.293182	0.292968	0.000876329	1	8.03716e-06	2.56737e-07
2	0	0	1	0	8.2063	0.288182	0.288046	0.000841645	1	8.12273e-06	2.42433e-07
2	0	0	1	0	8.3063	0.283182	0.283009	0.00081306	1	8.20522e-06	2.30103e-07
2	0	0	1	0	8.4063	0.278182	0.278003	0.000791414	1	8.28521e-06	2.20015e-07
2	0	0	1	0	8.5063	0.273182	0.273025	0.000771127	1	8.36306e-06	2.10537e-07
2	0	0	0	0	8.6065	0.268182	0.268013	0.000753479	1	8.43923e-06	2.01942e-07
2	0	0	0	0	8.7065	0.263181	0.263054	0.000737792	1	8.51358e-06	1.94079e-07
2	0	0	0	0	8.8065	0.258181	0.258025	0.000723984	1	8.58645e-06	1.86806e-07
2	0	0	0	0	8.9065	0.253181	0.252956	0.000709408	1	8.65783e-06	1.79449e-07
2	0	0	0	0	9.0065	0.248181	0.248034	0.00069634	1	8.72796e-06	1.72716e-07
2	0	0	0	0	9.1065	0.243181	0.243064	0.000684978	1	8.79688e-06	1.66494e-07
2	0	0	0	0	9.2065	0.238181	0.238025	0.000674339	1	8.86466e-06	1.6051e-07
2	0	0	0	0	9.3065	0.233181	0.232965	0.000663646	1	8.93137e-06	1.54606e-07
2	0	0	0	0	9.4065	0.228181	0.22799	0.000654397	1	8.99707e-06	1.49196e-07
2	0	0	0	0	9.5065	0.22318	0.222971	0.000644729	1	9.06181e-06	1.43756e-07
2	0	0	0	0	9.6065	0.21818	0.218068	0.000633998	1	9.12558e-06	1.38254e-07
2	0	0	0	0	9.7065	0.21318	0.213022	0.000625869	1	9.18835e-06	1.33324e-07
2	0	0	0	0	9.8065	0.20818	0.208029	0.000616142	1	9.25022e-06	1.28176e-07
2	0	0	0	0	9.9065	0.20318	0.203026	0.00060778	1	9.31123e-06	1.23395e-07
2	0	0	0	0	10.0065	0.19818	0.198022	0.000599202	1	9.37138e-06	1.18655e-07
2	0	0	0	0	10.1065	0.19318	0.192974	0.000590715	1	9.4307e-06	1.13993e-07
2	0	0	0	0	10.2065	0.188179	0.188032	0.00058292	1	9.48913e-06	1.09608e-07
2	0	0	0	0	10.3065	0.183179	0.183027	0.000573123	1	9.54667e-06	1.04897e-07
2	0	0	0	0	10.4065	0.178179	0.178029	0.000563758	1	9.6033e-06	1.00365e-07
2	0	0	0	0	10.5065	0.173179	0.173012	0.000557602	1	9.65905e-06	9.64719e-08
2	0	0	0	0	10.6065	0.168179	0.16799	0.000546364	1	9.7139e-06	9.17839e-08
2	0	0	0	0	10.7065	0.163179	0.163024	0.000536916	1	9.7678e-06	8.753e-08
2	0	0	0	0	10.8065	0.158179	0.15801	0.000526928	1	9.82076e-06	8.32602e-08
2	0	0	0	0	10.9065	0.153179	0.153018	0.000517185	1	9.87277e-06	7.91387e-08
2	0	0	0	0	11.0065	0.148178	0.147985	0.00050673	1	9.92365e-06	7.49883e-08
2	0	0	0	0	11.1065	0.143178	0.143011	0.000493791	1	9.9734e-06	7.06174e-08
2	0	0	0	0	11.2065	0.138178	0.137926	0.000479384	1	1.00218e-05	6.61197e-08
2	0	0	0	0	11.3065	0.133178	0.13303	0.000465498	1	1.00689e-05	6.19251e-08
2	0	0	0	0	11.4065	0.128178	0.127978	0.000449073	1	1.01143e-05	5.74715e-08
2	0	0	0	0	11.5065	0.123178	0.122966	0.000427222	1	1.01579e-05	5.25338e-08
2	0	0	0	0	11.6065	0.118178	0.118001	0.00040484	1	1.01994e-05	4.77717e-08
2	0	0	0	0	11.7065	0.113177	0.112987	0.000377758	1	1.02383e-05	4.26817e-08
2	0	0	0	0	11.8065	0.108177	0.107951	0.000344709	1	1.02742e-05	3.72118e-08
2	0	0	0	0	11.9065	0.103177	0.103023	0.000304075	1	1.03065e-05	3.13266e-08
2	0	0	0	0	12.0065	0.0981771	0.0980307	0.000254192	1	1.03342e-05	2.49186e-08
2	0	0	0	0	12.1065	0.0931769	0.0930078	0.00019368	1	1.03565e-05	1.80138e-08
2	0	0	0	0	12.2065	0.0881768	0.0880062	0.000118661	1	1.03719e-05	1.04429e-08
2	0	0	0	0	12.3065	0.0831767	0.0829727	2.43622e-05	1	1.0379e-05	2.0214e-09
2	0	0	0	0	12.4065	0.0781765	0.0780071	-8.65145e-05	1	1.03758e-05	-6.74874e-09
2	0	0	0	0	12.5065	0.0731764	0.0730128	-0.000220093	1	1.03603e-05	-1.60696e-08
2	0	0	0	0	12.6065	0.0681763	0.0679815	-0.000375115	1	1.03305e-05	-2.55009e-08
2	0	0	0	0	12.7065	0.0631761	0.0630434	-0.000551785	1	1.0284e-05	-3.47864e-08
2	0	0	0	0	12.8065	0.058176	0.057993	-0.000741991	1	1.02192e-05	-4.30302e-08
2	0	0	0	0	12.9065	0.0531758	0.0530358	-0.000937366	1	1.0135e-05	-4.9714e-08
2	0	0	0	0	13.0065	0.0481757	0.0479801	-0.0011326	1	1.00311e-05	-5.43424e-08
2	0	0	0	0	13.1065	0.0431756	0.0430018	-0.00130708	1	9.90863e-06	-5.62068e-08
2	0	0	0	0	13.2065	0.0381754	0.0379821	-0.00145052	1	9.77016e-06	-5.50938e-08
2	0	0	0	0	13.3065	0.0331753	0.0330186	-0.00155607	1	9.61907e-06	-5.13792e-08
2	0	0	0	0	13.4065	0.0281752	0.028	-0.0016182	1	9.45965e-06	-4.53096e-08
2	0	0	0	0	13.5065	0.023175	0.022994	-0.0016365	1	9.2963e-06	-3.76296e-08
2	0	0	0	0	13.6065	0.0181749	0.0180592	-0.00161835	1	9.13299e-06	-2.9226e-08
2	0	0	0	0	13.7065	0.0131748	0.0129981	-0.00157071	1	8.97308e-06	-2.04163e-08
2	0	0	0	0	13.8065	0.00817464	0.00798268	-0.00150566	1	8.81887e-06	-1.20192e-08
2	0	0	0	0	13.9065	0.0031745	0.0030054	-0.00142981	1	8.67183e-06	-4.29716e-09
2	0	0	0	0	14.0065	-0.00182563	-0.00205881	-0.00135115	1	8.53258e-06	2.78177e-09
2	0	0	0	0	14.1065	-0.00682577	-0.00706048	-0.00127128	1	8.40125e-06	8.97587e-09
2	0	0	0	0	14.2065	-0.0118259	-0.0119763	-0.00119488	1	8.27763e-06	1.43102e-08
2	0	0	0	0	14.3065	-0.016826	-0.0170182	-0.00112728	1	8.16116e-06	1.91844e-08
2	0	0	0	0	14.4065	-0.0218262	-0.0220453	-0.00106486	1	8.05131e-06	2.34753e-08
2	0	0	0	0	14.5065	-0.0268263	-0.0270597	-0.00100778	1	7.94745e-06	2.72704e-08
2	0	0	0	0	14.6065	-0.0318265	-0.0320413	-0.000956274	1	7.84898e-06	3.06402e-08
2	0	0	0	0	14.7065	-0.0368266	-0.0370599	-0.000910904	1	7.75538e-06	3.3758e-08
2	0	0	0	0	14.8065	-0.0418267	-0.0419831	-0.000870349	1	7.66614e-06	3.654e-08
2	0	0	0	0	14.9065	-0.0468269	-0.0470208	-0.000831607	1	7.58083e-06	3.91028e-08
2	0	0	0	0	15.0065	-0.051827	-0.0520617	-0.000798381	1	7.49908e-06	4.15651e-08
2	0	0	0	0	15.1065	-0.0568271	-0.0570814	-0.00076861	1	7.4205e-06	4.38733e-08
2	0	0	0	0	15.2065	-0.0618273	-0.0620841	-0.00073903	1	7.34487e-06	4.5882e-08
2	0	0	0	0	15.3065	-0.0668274	-0.0670074	-0.000714567	1	7.27192e-06	4.78813e-08
2	0	0	0	0	15.4065	-0.0718275	-0.0720228	-0.000691111	1	7.20142e-06	4.97758e-08
2	0	0	0	0	15.5065	-0.0768277	-0.0770573	-0.000669642	1	7.13317e-06	5.16009e-08
2	0	0	0	0	15.6065	-0.0818278	-0.0820463	-0.000650159	1	7.06699e-06	5.33431e-08
2	0	0	0	0	15.7065	-0.0868279	-0.0870331	-0.000630658	1	7.00274e-06	5.48881e-08
2	0	0	0	0	15.8065	-0.0918281	-0.0919987	-0.000613148	1	6.94027e-06	5.64088e-08
2	0	0	0	0	15.9065	-0.0968282	-0.0970524	-0.000598736	1	6.87946e-06	5.81087e-08
2	0	0	1	0	16.0067	-0.101828	-0.101986	-0.000582928	1	6.82008e-06	5.94506e-08
2	0	0	1	0	16.1067	-0.106829	-0.107026	-0.00056849	1	6.76225e-06	6.08432e-08
2	0	0	1	0	16.2067	-0.111829	-0.112055	-0.000555281	1	6.70576e-06	6.22221e-08
2	0	0	1	0	16.3067	-0.116829	-0.117004	-0.000545301	1	6.65052e-06	6.38023e-08
2	0	0	1	0	16.4067	-0.121829	-0.122017	-0.000532782	1	6.59645e-06	6.50086e-08
2	0	0	1	0	16.5067	-0.126829	-0.127025	-0.000521634	1	6.5435e-06	6.62607e-08
2	0	0	1	0	16.6067	-0.131829	-0.132048	-0.000510031	1	6.49158e-06	6.73486e-08
2	0	0	1	0	16.7067	-0.136829	-0.137006	-0.000502257	1	6.44066e-06	6.88124e-08
2	0	0	1	0	16.8067	-0.141829	-0.142	-0.000492934	1	6.39069e-06	6.99964e-08
2	0	0	1	0	16.9067	-0.14683	-0.14705	-0.000482703	1	6.3416e-06	7.09815e-08
2	0	0	1	0	17.0067	-0.15183	-0.152013	-0.000475397	1	6.29334e-06	7.22668e-08
2	0	0	1	0	17.1067	-0.15683	-0.157006	-0.000468487	1	6.24584e-06	7.35551e-08
2	0	0	1	0	17.2067	-0.16183	-0.162057	-0.000460978	1	6.19912e-06	7.47048e-08
2	0	0	1	0	17.3067	-0.16683	-0.167039	-0.000453778	1	6.1531e-06	7.57985e-08
2	0	0	1	0	17.4067	-0.17183	-0.172038	-0.000446566	1	6.10773e-06	7.68264e-08
2	0	0	1	0	17.5067	-0.17683	-0.177035	-0.000441493	1	6.06298e-06	7.81595e-08
2	0	0	1	0	17.6067	-0.181831	-0.182064	-0.000436937	1	6.01878e-06	7.95505e-08
2	0	0	1	0	17.7067	-0.186831	-0.187086	-0.000432066	1	5.97512e-06	8.08333e-08
2	0	0	1	0	17.8067	-0.191831	-0.192034	-0.000426254	1	5.93195e-06	8.18554e-08
2	0	0	1	0	17.9067	-0.196831	-0.196999	-0.00042326	1	5.88922e-06	8.33817e-08
2	1	0	0	1	17.9961	-0.198731	-0.198888	-0.000312511	1	5.85405e-06	6.21546e-08
2	1	0	0	1	18.0961	-0.193731	-0.193884	-0.000282878	1	5.82485e-06	5.48455e-08
2	1	0	0	1	18.1961	-0.188731	-0.188869	-0.000262741	1	5.79789e-06	4.96235e-08
2	1	0	0	1	18.2961	-0.183731	-0.183906	-0.000251754	1	5.7725e-06	4.62991e-08
2	1	0	0	1	18.3961	-0.17873	-0.178909	-0.000238183	1	5.7484e-06	4.2613e-08
2	1	0	0	1	18.4961	-0.17373	-0.173918	-0.000228893	1	5.72541e-06	3.98086e-08
2	1	0	0	1	18.5961	-0.16873	-0.168966	-0.000218576	1	5.7034e-06	3.69318e-08
2	1	0	0	1	18.6961	-0.16373	-0.163875	-0.000211132	1	5.68232e-06	3.45993e-08
2	1	0	0	1	18.7961	-0.15873	-0.158922	-0.000201646	1	5.66206e-06	3.20461e-08
2	1	0	0	1	18.8961	-0.15373	-0.153896	-0.000193503	1	5.64259e-06	2.97794e-08
2	1	0	0	1	18.9961	-0.14873	-0.148912	-0.000188088	1	5.62382e-06	2.80084e-08
2	1	0	0	1	19.0961	-0.14373	-0.143862	-0.00018176	1	5.60572e-06	2.61484e-08
2	1	0	0	1	19.1961	-0.138729	-0.138853	-0.000176417	1	5.58829e-06	2.4496e-08
2	1	0	0	1	19.2961	-0.133729	-0.133899	-0.00016888	1	5.57144e-06	2.26129e-08
2	1	0	0	1	19.3961	-0.128729	-0.128849	-0.000162431	1	5.5552e-06	2.0929e-08
2	1	0	0	1	19.4961	-0.123729	-0.123886	-0.00015704	1	5.53951e-06	1.9455e-08
2	1	0	0	1	19.5961	-0.118729	-0.118862	-0.000152749	1	5.52435e-06	1.81561e-08
2	1	0	0	1	19.6961	-0.113729	-0.11393	-0.000147966	1	5.5097e-06	1.68577e-08
2	1	0	0	1	19.7961	-0.108729	-0.108906	-0.000143315	1	5.49554e-06	1.56078e-08
2	1	0	0	1	19.8961	-0.103728	-0.103934	-0.000138964	1	5.48184e-06	1.4443e-08
2	1	0	0	1	19.9961	-0.0987283	-0.0989023	-0.000134188	2	5.46858e-06	1.32715e-08
2	1	0	1	1	20.0963	-0.0937281	-0.0939229	-0.000130178	2	5.45572e-06	1.22267e-08
2	1	0	1	1	20.1963	-0.088728	-0.0888915	-0.000125615	2	5.44331e-06	1.11661e-08
2	1	0	1	1	20.2963	-0.0837279	-0.0838771	-0.000121539	2	5.43132e-06	1.01943e-08
2	1	0	1	1	20.3963	-0.0787277	-0.0789581	-0.000117276	2	5.41972e-06	9.25992e-09
2	1	0	1	1	20.4963	-0.0737276	-0.0738929	-0.00011256	2	5.40853e-06	8.31738e-09
2	1	0	1	1	20.5963	-0.0687275	-0.0689283	-0.000110726	2	5.39773e-06	7.63219e-09
2	1	0	1	1	20.6963	-0.0637273	-0.063915	-0.000106183	2	5.38732e-06	6.7867e-09
2	1	0	1	1	20.7963	-0.0587272	-0.0589038	-0.000101672	2	5.37733e-06	5.98886e-09
2	1	0	1	1	20.8963	-0.053727	-0.0539403	-9.65953e-05	2	5.36774e-06	5.21037e-09
2	1	0	1	1	20.9963	-0.0487269	-0.0488919	-9.31861e-05	2	5.35862e-06	4.55605e-09
2	1	0	1	1	21.0963	-0.0437268	-0.0438415	-8.7758e-05	2	5.34994e-06	3.84744e-09
2	1	0	1	1	21.1963	-0.0387266	-0.0389013	-8.20685e-05	2	5.34176e-06	3.19257e-09
2	1	0	1	1	21.2963	-0.0337265	-0.033941	-7.64548e-05	2	5.33412e-06	2.59495e-09
2	1	0	1	1	21.3963	-0.0287264	-0.0288991	-7.11698e-05	2	5.32712e-06	2.05674e-09
2	1	0	1	1	21.4963	-0.0237262	-0.023855	-6.34418e-05	2	5.32088e-06	1.5134e-09
2	1	0	1	1	21.5963	-0.0187261	-0.0188533	-5.13385e-05	2	5.31549e-06	9.679e-10
2	1	0	1	1	21.6963	-0.013726	-0.0139259	-3.97809e-05	2	5.31118e-06	5.53983e-10
2	1	0	1	1	21.7963	-0.00872582	-0.0088945	-2.44045e-05	2	5.30822e-06	2.17065e-10
2	1	0	1	1	21.8963	-0.00372568	-0.00390767	-7.69965e-06	2	5.30694e-06	3.00877e-11
2	1	0	1	1	21.9963	0.00127445	0.00117563	1.75616e-05	2	5.30793e-06	2.06459e-11
2	1	0	1	1	22.0963	0.00627459	0.00614019	4.97082e-05	2	5.31169e-06	3.05218e-10
2	1	0	1	1	22.1963	0.0112747	0.011145	9.18827e-05	2	5.31912e-06	1.02404e-09
2	1	0	1	1	22.2963	0.0162749	0.0161244	0.000144701	2	5.33128e-06	2.33323e-09
2	1	0	1	1	22.3963	0.021275	0.0211081	0.000213337	2	5.3495e-06	4.50313e-09
2	1	0	1	1	22.4963	0.0262751	0.0261098	0.000300114	2	5.37538e-06	7.83591e-09
2	1	0	1	1	22.5963	0.0312753	0.0311347	0.00040345	2	5.4108e-06	1.25613e-08
2	1	0	1	1	22.6963	0.0362754	0.0361237	0.000531738	2	5.45783e-06	1.92083e-08
2	1	0	1	1	22.7963	0.0412755	0.041155	0.000679686	2	5.51869e-06	2.79725e-08
2	1	0	1	1	22.8963	0.0462757	0.0461048	0.000849296	2	5.59539e-06	3.91566e-08
2	1	0	1	1	22.9963	0.0512758	0.0511467	0.00103318	2	5.68973e-06	5.28439e-08
2	1	0	1	1	23.0963	0.0562759	0.0561208	0.00122161	2	5.80284e-06	6.85577e-08
2	1	0	1	1	23.1963	0.0612761	0.0611416	0.00140803	2	5.93478e-06	8.60894e-08
2	1	0	1	1	23.2963	0.0662762	0.0661496	0.00158071	2	6.08481e-06	1.04563e-07
2	1	0	1	1	23.3963	0.0712763	0.071164	0.00172954	2	6.25095e-06	1.23081e-07
2	1	0	1	1	23.4963	0.0762765	0.0761752	0.0018458	2	6.43038e-06	1.40604e-07
2	1	0	1	1	23.5963	0.0812766	0.0811673	0.00192482	2	6.61968e-06	1.56232e-07
2	1	0	1	1	23.6963	0.0862767	0.0860979	0.00196792	2	6.8151e-06	1.69433e-07
2	1	0	1	1	23.7963	0.0912769	0.0911717	0.00197838	2	7.01316e-06	1.80372e-07
2	1	0	1	1	23.8963	0.096277	0.0961384	0.00196096	2	7.21074e-06	1.88523e-07
2	1	0	1	1	23.9963	0.101277	0.101127	0.00192222	2	7.40543e-06	1.94389e-07
2	1	0	1	1	24.0963	0.106277	0.10607	0.00186974	2	7.59551e-06	1.98323e-07
2	1	0	1	1	24.1963	0.111277	0.111119	0.00180856	2	7.77988e-06	2.00965e-07
2	1	0	1	1	24.2963	0.116278	0.116126	0.00174417	2	7.958e-06	2.02544e-07
2	1	0	1	1	24.3963	0.121278	0.121147	0.00168062	2	8.12967e-06	2.03601e-07
2	1	0	1	1	24.4963	0.126278	0.126081	0.00161889	2	8.295e-06	2.04111e-07
2	1	0	1	1	24.5963	0.131278	0.131143	0.00155946	2	8.45428e-06	2.04511e-07
2	1	0	1	1	24.6963	0.136278	0.136138	0.00150408	2	8.60785e-06	2.04763e-07
2	1	0	1	1	24.7963	0.141278	0.14113	0.00145522	2	8.75615e-06	2.05376e-07
2	1	0	1	1	24.8963	0.146278	0.146157	0.00140815	2	8.89958e-06	2.05811e-07
2	1	0	1	1	24.9963	0.151278	0.151089	0.00136592	2	9.03859e-06	2.06376e-07
2	1	0	1	1	25.0963	0.156279	0.156127	0.00132554	2	9.17358e-06	2.06952e-07
2	1	0	1	1	25.1963	0.161279	0.161183	0.00129322	2	9.30486e-06	2.08445e-07
2	1	0	1	1	25.2963	0.166279	0.166165	0.00125899	2	9.43274e-06	2.09199e-07
2	1	0	1	1	25.3963	0.171279	0.171155	0.00123066	2	9.55751e-06	2.10633e-07
2	1	0	1	1	25.4963	0.176279	0.176152	0.00120122	2	9.67939e-06	2.11598e-07
2	1	0	1	1	25.5963	0.181279	0.181133	0.00117543	2	9.79861e-06	2.12909e-07
2	1	0	1	1	25.6963	0.186279	0.186159	0.00115267	2	9.91536e-06	2.1458e-07
2	1	0	1	1	25.7963	0.19128	0.191118	0.00113223	2	1.00298e-05	2.16389e-07
2	1	0	1	1	25.8963	0.19628	0.19616	0.00110888	2	1.01422e-05	2.17518e-07
2	1	0	1	1	25.9963	0.20128	0.201149	0.00109083	2	1.02526e-05	2.1942e-07
2	1	0	1	1	26.0963	0.20628	0.206156	0.00107467	2	1.03613e-05	2.21549e-07
2	1	0	1	1	26.1963	0.21128	0.211121	0.00105865	2	1.04682e-05	2.23503e-07
2	1	0	1	1	26.2963	0.21628	0.216135	0.00104283	2	1.05737e-05	2.25393e-07
2	1	0	1	1	26.3963	0.22128	0.221176	0.00103048	2	1.06777e-05	2.27918e-07
2	1	0	1	1	26.4963	0.22628	0.226137	0.00101626	2	1.07804e-05	2.29815e-07
2	1	0	1	1	26.5963	0.231281	0.231122	0.00100605	2	1.08818e-05	2.32521e-07
2	1	0	1	1	26.6963	0.236281	0.236151	0.000991851	2	1.09819e-05	2.34227e-07
2	1	0	1	1	26.7963	0.241281	0.241121	0.000981918	2	1.1081e-05	2.36761e-07
2	1	0	1	1	26.8963	0.246281	0.246143	0.00097167	2	1.11789e-05	2.39169e-07
2	1	0	1	1	26.9963	0.251281	0.251161	0.000961283	2	1.12758e-05	2.41437e-07
2	1	0	1	1	27.0963	0.256281	0.256202	0.000952284	2	1.13719e-05	2.43977e-07
2	1	0	1	1	27.1963	0.261281	0.261175	0.000943731	2	1.1467e-05	2.46479e-07
2	1	0	1	1	27.2963	0.266282	0.266173	0.000938606	2	1.15614e-05	2.49831e-07
2	1	0	0	1	27.3965	0.271282	0.271143	0.000929697	2	1.16553e-05	2.5208e-07
2	1	0	0	1	27.4965	0.276282	0.276195	0.000923816	2	1.17484e-05	2.55154e-07
2	1	0	0	1	27.5965	0.281282	0.281172	0.000920301	2	1.1841e-05	2.58763e-07
2	1	0	0	1	27.6965	0.286282	0.286194	0.000916383	2	1.19331e-05	2.62264e-07
2	1	0	0	1	27.7965	0.291282	0.291193	0.000911722	2	1.20248e-05	2.65487e-07
2	1	0	0	1	27.8965	0.296282	0.296142	0.000908752	2	1.21162e-05	2.6912e-07
2	0	0	0	1	27.9769	0.299682	0.299491	0.000815323	2	1.21889e-05	2.44182e-07
2	0	0	0	1	28.0769	0.294682	0.294523	0.000757068	2	1.22668e-05	2.22974e-07
2	0	0	0	1	28.1769	0.289682	0.289541	0.000727676	2	1.23409e-05	2.10692e-07
2	0	0	0	1	28.2769	0.284682	0.284489	0.000704336	2	1.24124e-05	2.00376e-07
2	0	0	0	1	28.3769	0.279682	0.279523	0.000684786	2	1.24818e-05	1.91413e-07
2	0	0	0	1	28.4769	0.274682	0.274503	0.000670252	2	1.25495e-05	1.83986e-07
2	0	0	0	1	28.577	0.269678	0.269517	0.00065562	2	1.26156e-05	1.76701e-07
2	0	0	1	1	28.6771	0.264682	0.264545	0.000642848	2	1.26804e-05	1.70063e-07
2	0	0	1	1	28.7771	0.259681	0.259482	0.000628968	2	1.27439e-05	1.63206e-07
2	0	0	1	1	28.8771	0.254681	0.254466	0.000619148	2	1.28062e-05	1.57552e-07
2	0	0	1	1	28.9771	0.249681	0.249545	0.000608188	2	1.28674e-05	1.5177e-07
2	0	0	1	1	29.0771	0.244681	0.244556	0.000599079	2	1.29277e-05	1.46508e-07
2	0	0	1	1	29.1771	0.239681	0.239552	0.000589111	2	1.29869e-05	1.41123e-07
2	0	0	1	1	29.2771	0.234681	0.234477	0.000580139	2	1.30452e-05	1.36029e-07
2	0	0	1	1	29.3771	0.229681	0.229509	0.000570519	2	1.31027e-05	1.3094e-07
2	0	0	1	1	29.4771	0.22468	0.224483	0.000562422	2	1.31593e-05	1.26254e-07
2	0	0	1	1	29.5771	0.21968	0.219536	0.000554558	2	1.32151e-05	1.21745e-07
2	0	0	1	1	29.6771	0.21468	0.214492	0.000547332	2	1.32701e-05	1.17398e-07
2	0	0	1	1	29.7771	0.20968	0.209557	0.000537564	2	1.33243e-05	1.1265e-07
2	0	0	1	1	29.8771	0.20468	0.204521	0.000530014	2	1.33777e-05	1.08399e-07
2	0	0	1	1	29.9771	0.19968	0.199475	0.000523342	2	1.34303e-05	1.04394e-07
2	0	0	1	1	30.0771	0.19468	0.194556	0.000516475	2	1.34821e-05	1.00483e-07
2	0	0	1	1	30.1771	0.189679	0.189505	0.000507915	2	1.35331e-05	9.62522e-08
2	0	0	1	1	30.2771	0.184679	0.1845	0.000500685	2	1.35834e-05	9.23762e-08
2	0	0	1	1	30.3771	0.179679	0.179486	0.000491493	2	1.36329e-05	8.82162e-08
2	0	0	1	1	30.4771	0.174679	0.174481	0.000483724	2	1.36816e-05	8.44004e-08
2	0	0	1	1	30.5771	0.169679	0.169513	0.000476918	2	1.37295e-05	8.08437e-08
2	0	0	1	1	30.6771	0.164679	0.164484	0.000466984	2	1.37765e-05	7.68112e-08
2	0	0	1	1	30.7771	0.159679	0.159517	0.000458873	2	1.38227e-05	7.31979e-08
2	0	0	1	1	30.8771	0.154679	0.154496	0.000448889	2	1.38679e-05	6.93516e-08
2	0	0	1	1	30.9771	0.149678	0.149466	0.000439064	2	1.39122e-05	6.56251e-08
2	0	0	1	1	31.0771	0.144678	0.144493	0.000428182	2	1.39554e-05	6.18691e-08
2	0	0	1	1	31.1771	0.139678	0.139489	0.000415426	2	1.39976e-05	5.79474e-08
2	0	0	1	1	31.2771	0.134678	0.134469	0.000404014	2	1.40385e-05	5.43274e-08
2	0	0	1	1	31.3771	0.129678	0.129524	0.000388653	2	1.4078e-05	5.03398e-08
2	0	0	1	1	31.4771	0.124678	0.12447	0.000371104	2	1.41158e-05	4.61914e-08
2	0	0	1	1	31.5771	0.119678	0.119462	0.000350174	2	1.41518e-05	4.18325e-08
2	0	0	1	1	31.6771	0.114677	0.114454	0.000327296	2	1.41856e-05	3.74603e-08
2	0	0	1	1	31.7771	0.109677	0.109468	0.000296504	2	1.42167e-05	3.24578e-08
2	0	0	1	1	31.8771	0.104677	0.104489	0.000262038	2	1.42446e-05	2.73801e-08
2	0	0	1	1	31.9771	0.0996771	0.0995064	0.000216834	2	1.42684e-05	2.15764e-08
2	0	0	1	1	32.0771	0.094677	0.0945228	0.000164291	2	1.42874e-05	1.55292e-08
2	0	0	1	1	32.1771	0.0896768	0.0895614	9.71271e-05	2	1.43004e-05	8.69884e-09
2	0	0	1	1	32.2771	0.0846767	0.0844993	1.34777e-05	2	1.43058e-05	1.13885e-09
2	0	0	1	1	32.3771	0.0796766	0.0794838	-8.66929e-05	2	1.43022e-05	-6.89068e-09
2	0	0	1	1	32.4771	0.0746764	0.0745193	-0.000206924	2	1.42874e-05	-1.54199e-08
2	0	0	1	1	32.5771	0.0696763	0.0695028	-0.000349052	2	1.42595e-05	-2.42601e-08
2	0	0	1	1	32.6771	0.0646762	0.0645138	-0.000514493	2	1.42162e-05	-3.31919e-08
2	0	0	1	1	32.7771	0.059676	0.0595185	-0.000693879	2	1.41558e-05	-4.12987e-08
2	0	0	1	1	32.8771	0.0546759	0.0544978	-0.000885422	2	1.40767e-05	-4.82535e-08
2	0	0	1	1	32.9771	0.0496758	0.049495	-0.00108129	2	1.39782e-05	-5.35187e-08
2	0	0	1	1	33.0771	0.0446756	0.0444647	-0.00126281	2	1.38607e-05	-5.61505e-08
2	0	0	1	1	33.1771	0.0396755	0.0395012	-0.00142129	2	1.37261e-05	-5.61426e-08
2	0	0	1	1	33.2771	0.0346754	0.0345335	-0.0015473	2	1.35771e-05	-5.34335e-08
2	0	0	1	1	33.3771	0.0296752	0.0295117	-0.00163119	2	1.34176e-05	-4.81391e-08
2	0	0	1	1	33.4771	0.0246751	0.0245312	-0.00167435	2	1.32519e-05	-4.10738e-08
2	0	0	1	1	33.5771	0.0196749	0.0194776	-0.00167466	2	1.3084e-05	-3.26184e-08
2	0	0	1	1	33.6771	0.0146748	0.0145025	-0.00164201	2	1.29178e-05	-2.38131e-08
2	0	0	1	1	33.7771	0.00967468	0.00945626	-0.00158889	2	1.27559e-05	-1.5025e-08
2	0	0	1	1	33.8771	0.00467454	0.00444081	-0.00151851	2	1.26003e-05	-6.74342e-09
2	0	0	1	1	33.9771	-0.000325592	-0.000463326	-0.00144108	2	1.24522e-05	6.6769e-10
2	0	0	1	1	34.0771	-0.00532573	-0.00552966	-0.00136327	2	1.23117e-05	7.53842e-09
2	0	0	1	1	34.1771	-0.0103259	-0.010543	-0.00128685	2	1.2179e-05	1.35673e-08
2	0	0	1	1	34.2771	-0.015326	-0.0155489	-0.00121664	2	1.20537e-05	1.89174e-08
2	0	0	1	1	34.3771	-0.0203261	-0.0204742	-0.00115199	2	1.19353e-05	2.3586e-08
2	0	0	1	1	34.4771	-0.0253263	-0.0255438	-0.00109034	2	1.18231e-05	2.78513e-08
2	0	0	1	1	34.5771	-0.0303264	-0.0305242	-0.00103577	2	1.17166e-05	3.16161e-08
2	0	0	1	1	34.6771	-0.0353265	-0.0355068	-0.000987952	2	1.16152e-05	3.5079e-08
2	0	0	1	1	34.7771	-0.0403267	-0.0405477	-0.000944248	2	1.15184e-05	3.82871e-08
2	0	0	1	1	34.8771	-0.0453268	-0.0455494	-0.000904773	2	1.14258e-05	4.12118e-08
2	0	0	1	1	34.9771	-0.050327	-0.0505076	-0.000869402	2	1.13369e-05	4.39114e-08
2	0	0	1	1	35.0771	-0.0553271	-0.0554933	-0.000836637	2	1.12514e-05	4.64278e-08
2	0	0	1	1	35.1771	-0.0603272	-0.0605236	-0.000807102	2	1.1169e-05	4.88487e-08
2	0	0	1	1	35.2771	-0.0653274	-0.0655613	-0.000779088	2	1.10894e-05	5.10781e-08
2	0	0	1	1	35.3771	-0.0703275	-0.0705651	-0.000755643	2	1.10124e-05	5.33221e-08
2	0	0	1	1	35.4771	-0.0753276	-0.0755764	-0.000731198	2	1.09378e-05	5.52613e-08
2	0	0	1	1	35.5771	-0.0803278	-0.0805324	-0.000711976	2	1.08654e-05	5.73372e-08
2	0	0	1	1	35.6771	-0.0853279	-0.0855436	-0.000691477	2	1.07951e-05	5.91515e-08
2	0	0	1	1	35.7771	-0.090328	-0.090557	-0.000674413	2	1.07266e-05	6.10728e-08
2	0	0	1	1	35.8771	-0.0953282	-0.0954717	-0.000657571	2	1.06598e-05	6.27794e-08
2	0	0	0	1	35.9773	-0.100328	-0.100566	-0.00064046	2	1.05946e-05	6.44082e-08
2	0	0	0	1	36.0773	-0.105328	-0.105532	-0.000626728	2	1.05311e-05	6.614e-08
2	0	0	0	1	36.1773	-0.110329	-0.110503	-0.000613194	2	1.04689e-05	6.77599e-08
2	0	0	0	1	36.2773	-0.115329	-0.115561	-0.000599799	2	1.04081e-05	6.93134e-08
2	0	0	0	1	36.3773	-0.120329	-0.120507	-0.000587641	2	1.03485e-05	7.08146e-08
2	0	0	0	1	36.4773	-0.125329	-0.125537	-0.000577452	2	1.02901e-05	7.24916e-08
2	0	0	0	1	36.5773	-0.130329	-0.130572	-0.000566186	2	1.02328e-05	7.39283e-08
2	0	0	0	1	36.6773	-0.135329	-0.135555	-0.000555851	2	1.01766e-05	7.53484e-08
2	0	0	0	1	36.7773	-0.140329	-0.140504	-0.000546104	2	1.01214e-05	7.67297e-08
2	0	0	0	1	36.8773	-0.14533	-0.145517	-0.000535728	2	1.00672e-05	7.79576e-08
2	0	0	0	1	36.9773	-0.15033	-0.150562	-0.000528189	2	1.00139e-05	7.95253e-08
2	0	0	0	1	37.0773	-0.15533	-0.155509	-0.000518448	2	9.96144e-06	8.06231e-08
2	0	0	0	1	37.1773	-0.16033	-0.160496	-0.00051113	2	9.90982e-06	8.2034e-08
2	0	0	0	1	37.2773	-0.16533	-0.1655	-0.000503061	2	9.85896e-06	8.32567e-08
2	0	0	0	1	37.3773	-0.17033	-0.170553	-0.000495796	2	9.80883e-06	8.45594e-08
2	0	0	0	1	37.4773	-0.17533	-0.175541	-0.000490562	2	9.75938e-06	8.61136e-08
2	0	0	0	1	37.5773	-0.180331	-0.18051	-0.000484189	2	9.71056e-06	8.74007e-08
2	0	0	0	1	37.6773	-0.185331	-0.185537	-0.000478308	2	9.66231e-06	8.87437e-08
2	0	0	0	1	37.7773	-0.190331	-0.19051	-0.000473101	2	9.61462e-06	9.01303e-08
2	0	0	0	1	37.8773	-0.195331	-0.195532	-0.000468081	2	9.56742e-06	9.15246e-08
2	1	0	0	0	37.9712	-0.200006	-0.200278	-0.000449544	2	9.52354e-06	9.00337e-08
2	1	0	1	0	38.0667	-0.195231	-0.19537	-0.000327363	2	9.49086e-06	6.3957e-08
2	1	0	1	0	38.1667	-0.190231	-0.190412	-0.000309349	2	9.45934e-06	5.89038e-08
2	1	0	1	0	38.2667	-0.185231	-0.18546	-0.000295189	2	9.4295e-06	5.4746e-08
2	1	0	1	0	38.3667	-0.18023	-0.180411	-0.000280177	2	9.40103e-06	5.0547e-08
2	1	0	1	0	38.4667	-0.17523	-0.175458	-0.000269538	2	9.37376e-06	4.72926e-08
2	1	0	1	0	38.5667	-0.17023	-0.170429	-0.000261865	2	9.34753e-06	4.46293e-08
2	1	0	1	0	38.6667	-0.16523	-0.165418	-0.000250537	2	9.32227e-06	4.14432e-08
2	1	0	1	0	38.7667	-0.16023	-0.160393	-0.00024254	2	9.29786e-06	3.89017e-08
2	1	0	1	0	38.8667	-0.15523	-0.155344	-0.000234673	2	9.27427e-06	3.64551e-08
2	1	0	1	0	38.9667	-0.15023	-0.150336	-0.000227879	2	9.25147e-06	3.42585e-08
2	1	0	1	0	39.0667	-0.14523	-0.145432	-0.000221068	2	9.22938e-06	3.21504e-08
2	1	0	1	0	39.1667	-0.140229	-0.140322	-0.000214069	2	9.20798e-06	3.00387e-08
2	1	0	1	0	39.2667	-0.135229	-0.135408	-0.000206681	2	9.18724e-06	2.79861e-08
2	1	0	1	0	39.3667	-0.130229	-0.13035	-0.000201041	2	9.16713e-06	2.62056e-08
2	1	0	1	0	39.4667	-0.125229	-0.12542	-0.000194245	2	9.14762e-06	2.43623e-08
2	1	0	1	0	39.5667	-0.120229	-0.120422	-0.000188965	2	9.1287e-06	2.27555e-08
2	1	0	1	0	39.6667	-0.115229	-0.115406	-0.000183537	2	9.11033e-06	2.11814e-08
2	1	0	1	0	39.7667	-0.110229	-0.110396	-0.000178243	2	9.09248e-06	1.96774e-08
2	1	0	1	0	39.8667	-0.105228	-0.105416	-0.000174144	2	9.07512e-06	1.83575e-08
2	1	0	1	0	39.9667	-0.100228	-0.100394	-0.00016965	2	9.05826e-06	1.70318e-08
2	1	0	0	0	40.0669	-0.0952282	-0.0954664	-0.000164208	3	9.04181e-06	1.56763e-08
2	1	0	0	0	40.1669	-0.0902281	-0.090416	-0.000160383	3	9.02585e-06	1.45012e-08
2	1	0	0	0	40.2669	-0.0852279	-0.0854026	-0.000155194	3	9.01034e-06	1.3254e-08
2	1	0	0	0	40.3669	-0.0802278	-0.0804052	-0.000151659	3	8.99525e-06	1.21942e-08
2	1	0	0	0	40.4669	-0.0752276	-0.0754364	-0.000146606	3	8.9806e-06	1.10594e-08
2	1	0	0	0	40.5669	-0.0702275	-0.0703892	-0.000142916	3	8.96635e-06	1.00597e-08
2	1	0	0	0	40.6669	-0.0652274	-0.0654161	-0.000137963	3	8.95253e-06	9.02497e-09
2	1	0	0	0	40.7669	-0.0602272	-0.0603551	-0.000133741	3	8.93915e-06	8.07194e-09
2	1	0	0	0	40.8669	-0.0552271	-0.0554276	-0.000130399	3	8.92621e-06	7.2277e-09
2	1	0	0	0	40.9669	-0.050227	-0.0503878	-0.000124921	3	8.91377e-06	6.2945e-09
2	1	0	0	0	41.0669	-0.0452268	-0.0454328	-0.000119696	3	8.90177e-06	5.43813e-09
2	1	0	0	0	41.1669	-0.0402267	-0.0403654	-0.000113966	3	8.8903e-06	4.60028e-09
2	1	0	0	0	41.2669	-0.0352265	-0.0353849	-0.000108006	3	8.87942e-06	3.82179e-09
2	1	0	0	0	41.3669	-0.0302264	-0.030362	-0.00010161	3	8.86919e-06	3.08509e-09
2	1	0	0	0	41.4669	-0.0252263	-0.0253932	-9.43431e-05	3	8.85971e-06	2.39568e-09
2	1	0	0	0	41.5669	-0.0202261	-0.0204223	-8.36299e-05	3	8.8511e-06	1.70792e-09
2	1	0	0	0	41.6669	-0.015226	-0.015409	-7.13535e-05	3	8.84358e-06	1.09948e-09
2	1	0	0	0	41.7669	-0.0102259	-0.0104349	-5.65281e-05	3	8.83738e-06	5.89863e-10
2	1	0	0	0	41.8669	-0.00522573	-0.00536958	-3.93393e-05	3	8.83281e-06	2.11236e-10
2	1	0	0	0	41.9669	-0.000225524	-0.000392297	-1.40216e-05	3	8.83036e-06	5.50063e-12
2	1	0	0	0	42.0669	0.00477455	0.00467298	1.59294e-05	3	8.83059e-06	7.44379e-11
2	1	0	0	0	42.1669	0.00977468	0.00967782	5.40642e-05	3	8.83422e-06	5.23223e-10
2	1	0	0	0	42.2669	0.0147748	0.0146	0.000102684	3	8.84228e-06	1.49919e-09
2	1	0	0	0	42.3669	0.0197749	0.0196695	0.00016703	3	8.85592e-06	3.28541e-09
2	1	0	0	0	42.4669	0.0247751	0.0246277	0.000246979	3	8.87663e-06	6.08253e-09
2	1	0	0	0	42.5669	0.0297752	0.0296145	0.000342589	3	8.90617e-06	1.01456e-08
2	1	0	0	0	42.6669	0.0347753	0.0346448	0.000459871	3	8.94643e-06	1.59321e-08
2	1	0	0	0	42.7669	0.0397755	0.0396475	0.00059704	3	8.9995e-06	2.36712e-08
2	1	0	0	0	42.8669	0.0447756	0.0446333	0.000756367	3	9.06737e-06	3.37592e-08
2	1	0	0	0	42.9669	0.0497758	0.0496318	0.000927904	3	9.1518e-06	4.60535e-08
2	1	0	0	0	43.0669	0.0547759	0.0546472	0.00111313	3	9.25426e-06	6.08294e-08
2	1	0	0	0	43.1669	0.059776	0.0596542	0.00129569	3	9.37504e-06	7.72932e-08
2	1	0	0	0	43.2669	0.0647762	0.0646113	0.00147139	3	9.51377e-06	9.50684e-08
2	1	0	0	0	43.3669	0.0697763	0.0696459	0.00162474	3	9.669e-06	1.13156e-07
2	1	0	0	0	43.4669	0.0747764	0.0746285	0.00175061	3	9.83834e-06	1.30645e-07
2	1	0	0	0	43.5669	0.0797766	0.07961	0.00184562	3	1.00187e-05	1.4693e-07
2	1	0	0	0	43.6669	0.0847767	0.0846424	0.00190344	3	1.02067e-05	1.61112e-07
2	1	0	0	0	43.7669	0.0897768	0.0895826	0.00192601	3	1.03987e-05	1.72537e-07
2	1	0	0	0	43.8669	0.094777	0.094616	0.00192112	3	1.05916e-05	1.81769e-07
2	1	0	0	0	43.9669	0.0997771	0.0996474	0.00189269	3	1.07828e-05	1.88602e-07
2	1	0	0	0	44.0669	0.104777	0.10464	0.00184657	3	1.09702e-05	1.93224e-07
2	1	0	0	0	44.1669	0.109777	0.109677	0.00179116	3	1.11525e-05	1.9645e-07
2	1	0	0	0	44.2669	0.114777	0.114622	0.00173135	3	1.1329e-05	1.98451e-07
2	1	0	0	0	44.3669	0.119778	0.119604	0.00166807	3	1.14992e-05	1.99508e-07
2	1	0	0	0	44.4669	0.124778	0.124578	0.00160556	3	1.16632e-05	2.00018e-07
2	1	0	0	0	44.5669	0.129778	0.129594	0.00154596	3	1.18212e-05	2.00346e-07
2	1	0	0	0	44.6669	0.134778	0.13464	0.00149053	3	1.19733e-05	2.00685e-07
2	1	0	0	0	44.7669	0.139778	0.139629	0.0014405	3	1.21201e-05	2.01135e-07
2	1	0	0	0	44.8669	0.144778	0.144601	0.0013918	3	1.2262e-05	2.01256e-07
2	1	0	0	0	44.9669	0.149778	0.149605	0.00134815	3	1.23993e-05	2.01689e-07
2	1	0	0	0	45.0669	0.154779	0.15465	0.00130751	3	1.25324e-05	2.02207e-07
2	1	0	0	0	45.1669	0.159779	0.159648	0.00127252	3	1.26618e-05	2.03156e-07
2	1	0	0	0	45.2669	0.164779	0.16465	0.00123905	3	1.27877e-05	2.04009e-07
2	1	0	0	0	45.3669	0.169779	0.169693	0.00120834	3	1.29104e-05	2.05047e-07
2	1	0	0	0	45.4669	0.174779	0.174613	0.00118026	3	1.30301e-05	2.06088e-07
2	1	0	0	0	45.5669	0.179779	0.179662	0.00115439	3	1.31471e-05	2.074e-07
2	1	0	0	0	45.6669	0.184779	0.184631	0.00112983	3	1.32615e-05	2.08601e-07
2	1	0	0	0	45.7669	0.18978	0.189657	0.00110677	3	1.33736e-05	2.09907e-07
2	1	0	0	0	45.8669	0.19478	0.194647	0.00108479	3	1.34836e-05	2.11151e-07
2	1	0	0	0	45.9669	0.19978	0.199607	0.00106601	3	1.35915e-05	2.12782e-07
2	1	0	0	0	46.0669	0.20478	0.204674	0.00104937	3	1.36976e-05	2.14779e-07
2	1	0	0	0	46.1669	0.20978	0.209684	0.00103254	3	1.3802e-05	2.16507e-07
2	1	0	0	0	46.2669	0.21478	0.214632	0.00101762	3	1.39048e-05	2.18413e-07
2	1	0	0	0	46.3669	0.21978	0.219668	0.00100094	3	1.40061e-05	2.19875e-07
2	1	0	0	0	46.4669	0.22478	0.224618	0.000989258	3	1.41059e-05	2.22205e-07
2	1	0	0	0	46.5669	0.229781	0.229661	0.000975171	3	1.42045e-05	2.23959e-07
2	1	0	0	0	46.6669	0.234781	0.23471	0.00096312	3	1.43017e-05	2.26054e-07
2	1	0	0	0	46.7669	0.239781	0.239654	0.000950856	3	1.43977e-05	2.27876e-07
2	1	0	0	0	46.8669	0.244781	0.244645	0.000940171	3	1.44926e-05	2.30008e-07
2	1	0	0	0	46.9669	0.249781	0.249684	0.000928428	3	1.45863e-05	2.31813e-07
2	1	0	0	0	47.0669	0.254781	0.254656	0.00091887	3	1.4679e-05	2.33995e-07
2	1	0	0	0	47.1669	0.259781	0.259648	0.00091013	3	1.47708e-05	2.36313e-07
2	1	0	0	0	47.2669	0.264782	0.264674	0.00090018	3	1.48616e-05	2.38254e-07
2	1	0	1	0	47.3671	0.269783	0.269717	0.000893195	3	1.49518e-05	2.4091e-07
2	1	0	1	0	47.4671	0.274782	0.274689	0.000886823	3	1.50412e-05	2.436e-07
2	1	0	1	0	47.5671	0.279782	0.279678	0.000881665	3	1.51299e-05	2.46582e-07
2	1	0	1	0	47.6671	0.284782	0.28471	0.000874926	3	1.5218e-05	2.491e-07
2	1	0	1	0	47.7671	0.289782	0.289622	0.00087181	3	1.53057e-05	2.52495e-07
2	1	0	1	0	47.8671	0.294782	0.294667	0.000866968	3	1.5393e-05	2.55467e-07
2	1	0	1	0	47.9666	0.299757	0.299599	0.000864378	3	1.54794e-05	2.58967e-07
2	0	0	1	0	48.0475	0.296182	0.295981	0.000729788	3	1.55404e-05	2.16004e-07
2	0	0	1	0	48.1475	0.291182	0.291042	0.000699862	3	1.56115e-05	2.03689e-07
2	0	0	1	0	48.2475	0.286182	0.286012	0.000676968	3	1.56801e-05	1.93621e-07
2	0	0	1	0	48.3475	0.281182	0.280982	0.000658173	3	1.57466e-05	1.84935e-07
2	0	0	1	0	48.4475	0.276182	0.275967	0.000643214	3	1.58114e-05	1.77506e-07
2	0	0	1	0	48.5475	0.271182	0.271004	0.000629558	3	1.58748e-05	1.70613e-07
2	0	0	0	0	48.6477	0.266182	0.265986	0.000615312	3	1.59369e-05	1.63664e-07
2	0	0	0	0	48.7477	0.261181	0.261009	0.00060495	3	1.59978e-05	1.57897e-07
2	0	0	0	0	48.8477	0.256181	0.256066	0.000594415	3	1.60575e-05	1.52209e-07
2	0	0	0	0	48.9477	0.251181	0.250975	0.000582275	3	1.61161e-05	1.46136e-07
2	0	0	0	0	49.0477	0.246181	0.24603	0.000573621	3	1.61738e-05	1.41128e-07
2	0	0	0	0	49.1477	0.241181	0.241006	0.000565165	3	1.62305e-05	1.36209e-07
2	0	0	0	0	49.2477	0.236181	0.236006	0.000555936	3	1.62864e-05	1.31204e-07
2	0	0	0	0	49.3477	0.231181	0.230988	0.000547408	3	1.63414e-05	1.26445e-07
2	0	0	0	0	49.4477	0.226181	0.22595	0.000540125	3	1.63956e-05	1.22041e-07
2	0	0	0	0	49.5477	0.22118	0.220962	0.000531885	3	1.6449e-05	1.17526e-07
2	0	0	0	0	49.6477	0.21618	0.216029	0.000523376	3	1.65016e-05	1.13064e-07
2	0	0	0	0	49.7477	0.21118	0.210941	0.000516538	3	1.65534e-05	1.08959e-07
2	0	0	0	0	49.8477	0.20618	0.206004	0.000508342	3	1.66044e-05	1.04721e-07
2	0	0	0	0	49.9477	0.20118	0.201006	0.000501768	3	1.66547e-05	1.00858e-07
2	0	0	0	0	50.0477	0.19618	0.196032	0.000495091	3	1.67042e-05	9.70535e-08
2	0	0	0	0	50.1477	0.19118	0.190993	0.000485409	3	1.67529e-05	9.27098e-08
2	0	0	0	0	50.2477	0.186179	0.186028	0.000478241	3	1.68009e-05	8.89665e-08
2	0	0	0	0	50.3477	0.181179	0.181069	0.000469752	3	1.68481e-05	8.50576e-08
2	0	0	0	0	50.4477	0.176179	0.176	0.000461282	3	1.68945e-05	8.11855e-08
2	0	0	0	0	50.5477	0.171179	0.171028	0.000453324	3	1.69401e-05	7.7531e-08
2	0	0	0	0	50.6477	0.166179	0.165971	0.000445598	3	1.69849e-05	7.39563e-08
2	0	0	0	0	50.7477	0.161179	0.161015	0.000437598	3	1.70289e-05	7.04598e-08
2	0	0	0	0	50.8477	0.156179	0.156034	0.000427692	3	1.7072e-05	6.67347e-08
2	0	0	0	0	50.9477	0.151178	0.150969	0.000418742	3	1.71141e-05	6.32171e-08
2	0	0	0	0	51.0477	0.146178	0.145995	0.000407123	3	1.71553e-05	5.94378e-08
2	0	0	0	0	51.1477	0.141178	0.140981	0.000396657	3	1.71954e-05	5.59209e-08
2	0	0	0	0	51.2477	0.136178	0.135969	0.000384921	3	1.72343e-05	5.23374e-08
2	0	0	0	0	51.3477	0.131178	0.131003	0.000370668	3	1.72719e-05	4.85585e-08
2	0	0	0	0	51.4477	0.126178	0.12598	0.000355129	3	1.73081e-05	4.4739e-08
2	0	0	0	0	51.5477	0.121178	0.121001	0.00033576	3	1.73424e-05	4.06275e-08
2	0	0	0	0	51.6477	0.116178	0.115963	0.000313468	3	1.73747e-05	3.63506e-08
2	0	0	0	0	51.7477	0.111177	0.111008	0.000286469	3	1.74046e-05	3.18002e-08
2	0	0	0	0	51.8477	0.106177	0.106005	0.000253331	3	1.74315e-05	2.68544e-08
2	0	0	0	0	51.9477	0.101177	0.101016	0.000214266	3	1.74547e-05	2.16443e-08
2	0	0	0	0	52.0477	0.096177	0.0960281	0.000164416	3	1.74735e-05	1.57886e-08
2	0	0	0	0	52.1477	0.0911769	0.0910095	0.00010237	3	1.74868e-05	9.31662e-09
2	0	0	0	0	52.2477	0.0861767	0.0859718	2.78968e-05	3	1.74933e-05	2.39833e-09
2	0	0	0	0	52.3477	0.0811766	0.0810274	-6.41855e-05	3	1.74914e-05	-5.20078e-09
2	0	0	0	0	52.4477	0.0761765	0.0759388	-0.000175188	3	1.74794e-05	-1.33035e-08
2	0	0	0	0	52.5477	0.0711763	0.0710134	-0.000307982	3	1.74551e-05	-2.18708e-08
2	0	0	0	0	52.6477	0.0661762	0.0659895	-0.000460826	3	1.74167e-05	-3.04097e-08
2	0	0	0	0	52.7477	0.0611761	0.0609921	-0.00063196	3	1.7362e-05	-3.85445e-08
2	0	0	0	0	52.8477	0.0561759	0.0560106	-0.00081573	3	1.72894e-05	-4.56895e-08
2	0	0	0	0	52.9477	0.0511758	0.0509951	-0.00100777	3	1.7198e-05	-5.13916e-08
2	0	0	0	0	53.0477	0.0461757	0.0459521	-0.00119536	3	1.70875e-05	-5.49293e-08
2	0	0	0	0	53.1477	0.0411755	0.0409176	-0.00136447	3	1.69591e-05	-5.58309e-08
2	0	0	0	0	53.2477	0.0361754	0.0359816	-0.00150306	3	1.68153e-05	-5.40825e-08
2	0	0	0	0	53.3477	0.0311753	0.0310054	-0.00160533	3	1.66594e-05	-4.97739e-08
2	0	0	0	0	53.4477	0.0261751	0.0259825	-0.00166504	3	1.64953e-05	-4.3262e-08
2	0	0	0	0	53.5477	0.021175	0.0209841	-0.00168227	3	1.63274e-05	-3.53008e-08
2	0	0	0	0	53.6477	0.0161749	0.0159909	-0.00166679	3	1.61595e-05	-2.66535e-08
2	0	0	0	0	53.7477	0.0111747	0.0109722	-0.00162268	3	1.59947e-05	-1.78044e-08
2	0	0	0	0	53.8477	0.00617458	0.00601085	-0.00155848	3	1.58354e-05	-9.36777e-09
2	0	0	0	0	53.9477	0.00117445	0.000993285	-0.00148529	3	1.5683e-05	-1.47531e-09
2	0	0	0	0	54.0477	-0.00382569	-0.00405079	-0.00140966	3	1.5538e-05	5.71025e-09
2	0	0	0	0	54.1477	-0.00882582	-0.00903231	-0.00133314	3	1.54008e-05	1.20413e-08
2	0	0	0	0	54.2477	-0.013826	-0.0140562	-0.00126127	3	1.5271e-05	1.77288e-08
2	0	0	0	0	54.3477	-0.0188261	-0.0189773	-0.00119271	3	1.51483e-05	2.26344e-08
2	0	0	0	0	54.4477	-0.0238262	-0.0240172	-0.0011297	3	1.5032e-05	2.71323e-08
2	0	0	0	0	54.5477	-0.0288264	-0.0290061	-0.00107576	3	1.49215e-05	3.12037e-08
2	0	0	0	0	54.6477	-0.0338265	-0.0340036	-0.00102496	3	1.48164e-05	3.48524e-08
2	0	0	0	0	54.7477	-0.0388266	-0.0390042	-0.000980009	3	1.4716e-05	3.82244e-08
2	0	0	0	0	54.8477	-0.0438268	-0.0440058	-0.000939581	3	1.462e-05	4.13471e-08
2	0	0	0	0	54.9477	-0.0488269	-0.0489937	-0.000903976	3	1.45278e-05	4.42891e-08
2	0	0	0	0	55.0477	-0.0538271	-0.0540028	-0.000869869	3	1.44391e-05	4.69753e-08
2	0	0	0	0	55.1477	-0.0588272	-0.0589971	-0.000838217	3	1.43536e-05	4.94523e-08
2	0	0	0	0	55.2477	-0.0638273	-0.0640305	-0.000810648	3	1.4271e-05	5.19063e-08
2	0	0	0	0	55.3477	-0.0688275	-0.0690046	-0.000785486	3	1.41911e-05	5.42022e-08
2	0	0	0	0	55.4477	-0.0738276	-0.0740159	-0.00076191	3	1.41137e-05	5.63934e-08
2	0	0	0	0	55.5477	-0.0788277	-0.0790504	-0.00074048	3	1.40385e-05	5.85352e-08
2	0	0	0	0	55.6477	-0.0838279	-0.0840414	-0.00071881	3	1.39654e-05	6.04098e-08
2	0	0	0	0	55.7477	-0.088828	-0.0890548	-0.000701432	3	1.38943e-05	6.24659e-08
2	0	0	0	0	55.8477	-0.0938281	-0.0940034	-0.000682541	3	1.3825e-05	6.41612e-08
2	0	0	1	0	55.9479	-0.0988283	-0.0990624	-0.000667249	3	1.37572e-05	6.60993e-08
2	0	0	1	0	56.0479	-0.103828	-0.104102	-0.000651691	3	1.36912e-05	6.78424e-08
2	0	0	1	0	56.1479	-0.108829	-0.109036	-0.000638522	3	1.36266e-05	6.96219e-08
2	0	0	1	0	56.2479	-0.113829	-0.114054	-0.000625461	3	1.35633e-05	7.13361e-08
2	0	0	1	0	56.3479	-0.118829	-0.118998	-0.000612775	3	1.35014e-05	7.2919e-08
2	0	0	1	0	56.4479	-0.123829	-0.12401	-0.00060037	3	1.34406e-05	7.4452e-08
2	0	0	1	0	56.5479	-0.128829	-0.129005	-0.000590356	3	1.33811e-05	7.61586e-08
2	0	0	1	0	56.6479	-0.133829	-0.134034	-0.000578906	3	1.33226e-05	7.7593e-08
2	0	0	1	0	56.7479	-0.138829	-0.139027	-0.000567469	3	1.32652e-05	7.88935e-08
2	0	0	1	0	56.8479	-0.14383	-0.14403	-0.000557713	3	1.32087e-05	8.03272e-08
2	0	0	1	0	56.9479	-0.14883	-0.149053	-0.000548635	3	1.31533e-05	8.17755e-08
2	0	0	1	0	57.0479	-0.15383	-0.154036	-0.000540992	3	1.30988e-05	8.33324e-08
2	0	0	1	0	57.1479	-0.15883	-0.159061	-0.000531026	3	1.30451e-05	8.44657e-08
2	0	0	1	0	57.2479	-0.16383	-0.164012	-0.000523187	3	1.29923e-05	8.58089e-08
2	0	0	1	0	57.3479	-0.16883	-0.16903	-0.00051607	3	1.29402e-05	8.72311e-08
2	0	0	1	0	57.4479	-0.17383	-0.174034	-0.000509176	3	1.28888e-05	8.86141e-08
2	0	0	1	0	57.5479	-0.17883	-0.17905	-0.000501994	3	1.28381e-05	8.98819e-08
2	0	0	1	0	57.6479	-0.183831	-0.184006	-0.00049659	3	1.27881e-05	9.13756e-08
2	0	0	1	0	57.7479	-0.188831	-0.189062	-0.000492349	3	1.27386e-05	9.30844e-08
2	0	0	1	0	57.8479	-0.193831	-0.194038	-0.000487412	3	1.26896e-05	9.45764e-08
2	0	0	1	0	57.9479	-0.198831	-0.199104	-0.000480569	3	1.26411e-05	9.56833e-08
2	1	0	0	1	58.0373	-0.196731	-0.19686	-0.000350396	3	1.26059e-05	6.8979e-08
2	1	0	0	1	58.1373	-0.191731	-0.191863	-0.000328279	3	1.25723e-05	6.29845e-08
2	1	0	0	1	58.2373	-0.186731	-0.186852	-0.000313099	3	1.25406e-05	5.85033e-08
2	1	0	0	1	58.3373	-0.181731	-0.181949	-0.00029792	3	1.25103e-05	5.42064e-08
2	1	0	0	1	58.4373	-0.17673	-0.176886	-0.000287423	3	1.24813e-05	5.08411e-08
2	1	0	0	1	58.5373	-0.17173	-0.171898	-0.000277326	3	1.24533e-05	4.76718e-08
2	1	0	0	1	58.6373	-0.16673	-0.166909	-0.000266369	3	1.24264e-05	4.44594e-08
2	1	0	0	1	58.7373	-0.16173	-0.161857	-0.000258697	3	1.24003e-05	4.18719e-08
2	1	0	0	1	58.8373	-0.15673	-0.156916	-0.000249894	3	1.23751e-05	3.92122e-08
2	1	0	0	1	58.9373	-0.15173	-0.151866	-0.000243065	3	1.23507e-05	3.69133e-08
2	1	0	0	1	59.0373	-0.14673	-0.146898	-0.000236489	3	1.2327e-05	3.47398e-08
2	1	0	0	1	59.1373	-0.141729	-0.141899	-0.000228882	3	1.2304e-05	3.24781e-08
2	1	0	0	1	59.2373	-0.136729	-0.136863	-0.000221321	3	1.22817e-05	3.02906e-08
2	1	0	0	1	59.3373	-0.131729	-0.131868	-0.00021543	3	1.22601e-05	2.84083e-08
2	1	0	0	1	59.4373	-0.126729	-0.126844	-0.000209964	3	1.22391e-05	2.66327e-08
2	1	0	0	1	59.5373	-0.121729	-0.121847	-0.000203303	3	1.22187e-05	2.47718e-08
2	1	0	0	1	59.6373	-0.116729	-0.116895	-0.000198811	3	1.21989e-05	2.324e-08
2	1	0	0	1	59.7373	-0.111729	-0.111881	-0.000192217	3	1.21796e-05	2.15055e-08
2	1	0	0	1	59.8373	-0.106729	-0.106937	-0.000187194	3	1.21609e-05	2.00179e-08
2	1	0	0	1	59.9373	-0.101728	-0.101902	-0.000181785	3	1.21426e-05	1.85243e-08
2	1	0	1	1	60.0375	-0.0967282	-0.0968552	-0.000177774	3	1.21248e-05	1.72183e-08
2	1	0	1	1	60.1375	-0.0917281	-0.0919023	-0.000173057	3	1.21075e-05	1.59044e-08
2	1	0	1	1	60.2375	-0.086728	-0.0869208	-0.000169639	3	1.20906e-05	1.47452e-08
2	1	0	1	1	60.3375	-0.0817278	-0.0819159	-0.000164118	3	1.20741e-05	1.34438e-08
2	1	0	1	1	60.4375	-0.0767277	-0.0768962	-0.00016168	3	1.20581e-05	1.24326e-08
2	1	0	1	1	60.5375	-0.0717275	-0.0719878	-0.000155681	3	1.20425e-05	1.12072e-08
2	1	0	1	1	60.6375	-0.0667274	-0.0668907	-0.000152196	3	1.20274e-05	1.01805e-08
2	1	0	1	1	60.7375	-0.0617273	-0.0619018	-0.000147551	3	1.20127e-05	9.13364e-09
2	1	0	1	1	60.809	-0.0581522	-0.0582868	-0.000144057	3	1.20024e-05	8.39659e-09