File: AutoAnalysis Examples/EC/C003A-0ppb-B_C01.mpt
EC-Lab ASCII FILE
Nb header lines : 59

Cyclic Voltammetry

Run on channel : 1 (SN 22398)
User :
CE vs. WE compliance from -10 V to 10 V
Electrode connection : standard
Ewe ctrl range : min = -1.00 V, max = 1.00 V
Safety Limits :
	Ewe min = -2.00 V
	Ewe max = 2.00 V
	|I| = 50.000 mA
	for t > 10 ms
Acquisition started on : 11/21/2018 10:55:54
Technique started on : 11/21/2018 10:55:54
Saved on :
	File : C003A-0ppb-B_C01.mpr
	Directory : \\ECCOMPUTER\Users\Lab User\Google Drive\Electrochemical Data\EC-Lab\Data\FREDsense\Tim\2018.11.21 - EC comparison to High Throughput\
	Host : 172.16.1.30
Device : SP-50 (SN 0301030103010301)
Address : USB
EC-Lab for windows v11.02 (software)
Internet server v11.02 (firmware)
Command interpretor v11.02 (firmware)
Electrode material : Au/Pd
Initial state :
Electrolyte : NaCl (0.2M)
Comments : Fe(CN)63-/Fe(CN)64- 5.10-3 M
Reference electrode : SCE Saturated Calomel Electrode (0.241 V)
Electrode surface area : 0.001 cm²
Characteristic mass : 0.001 g
Equivalent Weight : 0.000 g/eq.
Density : 0.000 g/cm3
Cycle Definition : Charge/Discharge alternance
Ei (V)              -0.100
vs.                 Ref
dE/dt               50.000
dE/dt unit          mV/s
E1 (V)              0.300
vs.                 Ref
Step percent        50
N                   10
E range min (V)     -1.000
E range max (V)     1.000
I Range             Auto
I Range min         Unset
I Range max         Unset
I Range init        Unset
Bandwidth           5
E2 (V)              -0.200
vs.                 Ref
nc cycles           2
Reverse Scan        1
Ef (V)              0.000
vs.                 Eoc

mode	ox/red	error	control changes	counter inc.	time/s	control/V	Ewe/V	<I>/mA	cycle number	(Q-Qo)/C	P/W
2	1	0	1	0	0.000000000000000E+000	-0.0984851	-0.098736	-8.19563e-05	1	0.0000000E+000	8.09203e-09
2	1	0	0	0	0.111	-0.0929349	-0.0931167	9.06674e-07	1	1.22655e-09	-8.44265e-11
2	1	0	1	0	0.2265	-0.0871597	-0.0872654	3.71209e-05	1	5.74988e-09	-3.23937e-09
2	1	0	1	0	0.3265	-0.0821595	-0.0822797	4.26833e-05	1	1.01316e-08	-3.51197e-09
2	1	0	1	0	0.4265	-0.0771593	-0.0772759	4.67424e-05	1	1.49654e-08	-3.61206e-09
2	1	0	1	0	0.5265	-0.0721591	-0.0722944	5.01657e-05	1	2.01341e-08	-3.6267e-09
2	1	0	1	0	0.6265	-0.0671589	-0.0672196	5.21882e-05	1	2.55657e-08	-3.50807e-09
2	1	0	1	0	0.7265	-0.0621587	-0.062272	5.54278e-05	1	3.124e-08	-3.4516e-09
2	1	0	1	0	0.8265	-0.0571585	-0.0573244	5.67084e-05	1	3.7109e-08	-3.25077e-09
2	1	0	1	0	0.9265	-0.0521583	-0.0522591	6.18646e-05	1	4.3186e-08	-3.23298e-09
2	1	0	1	0	1.0265	-0.0471581	-0.0472627	6.06828e-05	1	4.94462e-08	-2.86804e-09
2	1	0	1	0	1.1265	-0.0421579	-0.0422981	6.1105e-05	1	5.58847e-08	-2.58463e-09
2	1	0	1	0	1.2265	-0.0371577	-0.0372636	6.388e-05	1	6.25386e-08	-2.3804e-09
2	1	0	1	0	1.3265	-0.0321575	-0.0322513	6.71902e-05	1	6.93901e-08	-2.16697e-09
2	1	0	1	0	1.4265	-0.0271573	-0.0273059	6.89902e-05	1	7.64733e-08	-1.88384e-09
2	1	0	1	0	1.5265	-0.022157	-0.0223116	7.18306e-05	1	8.37911e-08	-1.60266e-09
2	1	0	1	0	1.6265	-0.0171568	-0.0172559	7.57626e-05	1	9.14616e-08	-1.30735e-09
2	1	0	1	0	1.7265	-0.0121566	-0.0122871	7.90675e-05	1	9.95323e-08	-9.71507e-10
2	1	0	1	0	1.8265	-0.00715643	-0.00727056	8.48171e-05	1	1.0805e-07	-6.16667e-10
2	1	0	1	0	1.9265	-0.00215623	-0.00226147	8.99926e-05	1	1.17149e-07	-2.03515e-10
2	1	0	1	0	2.0265	0.00284397	0.00277307	9.87734e-05	1	1.27053e-07	2.73905e-10
2	1	0	1	0	2.1265	0.00784417	0.00775459	0.000110974	1	1.37896e-07	8.60557e-10
2	1	0	1	0	2.2265	0.0128444	0.0127192	0.000125688	1	1.4999e-07	1.59864e-09
2	1	0	1	0	2.3265	0.0178446	0.0177484	0.000143094	1	1.63694e-07	2.53969e-09
2	1	0	1	0	2.4265	0.0228448	0.0227405	0.000165974	1	1.7945e-07	3.77434e-09
2	1	0	1	0	2.5265	0.027845	0.0276998	0.00019489	1	1.97813e-07	5.39841e-09
2	1	0	1	0	2.6265	0.0328452	0.0327014	0.000230501	1	2.19368e-07	7.5377e-09
2	1	0	1	0	2.7265	0.0378454	0.0377254	0.000272338	1	2.44786e-07	1.0274e-08
2	1	0	1	0	2.8265	0.0428456	0.0426878	0.000319674	1	2.74707e-07	1.36462e-08
2	1	0	1	0	2.9265	0.0478458	0.0476969	0.000372459	1	3.09683e-07	1.77651e-08
2	1	0	1	0	3.0265	0.052846	0.0527643	0.000429153	1	3.50134e-07	2.2644e-08
2	1	0	1	0	3.1265	0.0578462	0.0578031	0.000482281	1	3.96055e-07	2.78773e-08
2	1	0	1	0	3.2265	0.0628464	0.0627708	0.000531411	1	4.47221e-07	3.33571e-08
2	1	0	1	0	3.3265	0.0678466	0.0677216	0.000576296	1	5.03086e-07	3.90276e-08
2	1	0	1	0	3.4265	0.0728468	0.0727402	0.000607434	1	5.62749e-07	4.41848e-08
2	1	0	1	0	3.5265	0.077847	0.0777154	0.000630897	1	6.25188e-07	4.90304e-08
2	1	0	1	0	3.6265	0.0828472	0.0827329	0.000641174	1	6.89305e-07	5.30462e-08
2	1	0	1	0	3.7265	0.0878474	0.0877049	0.000645982	1	7.54089e-07	5.66558e-08
2	1	0	1	0	3.8265	0.0928476	0.0927342	0.000640425	1	8.18734e-07	5.93892e-08
2	1	0	1	0	3.9265	0.0978478	0.0977496	0.000628878	1	8.82576e-07	6.14725e-08
2	1	0	1	0	4.0265	0.102848	0.102718	0.00061445	1	9.45185e-07	6.31153e-08
2	1	0	1	0	4.1265	0.107848	0.107686	0.000600633	1	1.00633e-06	6.46799e-08
2	1	0	1	0	4.2265	0.112848	0.112724	0.000584172	1	1.06587e-06	6.58501e-08
2	1	0	1	0	4.3265	0.117849	0.117687	0.000566867	1	1.12384e-06	6.6713e-08
2	1	0	1	0	4.4265	0.122849	0.122746	0.000553839	1	1.18026e-06	6.79817e-08
2	1	0	1	0	4.5265	0.127849	0.127674	0.000538624	1	1.23522e-06	6.87681e-08
2	1	0	1	0	4.6265	0.132849	0.132776	0.000527386	1	1.28885e-06	7.00242e-08
2	1	0	1	0	4.7265	0.137849	0.137704	0.000513279	1	1.34126e-06	7.06804e-08
2	1	0	1	0	4.8265	0.14285	0.142704	0.000504799	1	1.39259e-06	7.20369e-08
2	1	0	0	0	4.9267	0.14785	0.14771	0.00049661	1	1.443e-06	7.33543e-08
2	1	0	0	0	5.0267	0.15285	0.152771	0.000489173	1	1.49244e-06	7.47316e-08
2	1	0	0	0	5.1267	0.15785	0.157686	0.000479225	1	1.54113e-06	7.5567e-08
2	1	0	0	0	5.2267	0.16285	0.162702	0.000473034	1	1.5891e-06	7.69637e-08
2	1	0	0	0	5.3267	0.167851	0.16772	0.000468134	1	1.63648e-06	7.85154e-08
2	1	0	0	0	5.4267	0.172851	0.172737	0.000463087	1	1.68331e-06	7.99925e-08
2	1	0	0	0	5.5267	0.177851	0.177726	0.000457226	1	1.72968e-06	8.12612e-08
2	1	0	0	0	5.6267	0.182851	0.182707	0.000454617	1	1.77566e-06	8.30617e-08
2	1	0	0	0	5.7267	0.187851	0.18764	0.000452436	1	1.82129e-06	8.48949e-08
2	1	0	0	0	5.8267	0.192852	0.192682	0.000450261	1	1.86664e-06	8.67571e-08
2	1	0	0	0	5.9267	0.197852	0.197688	0.000446727	1	1.91175e-06	8.83123e-08
2	1	0	0	0	6.0267	0.202852	0.202674	0.000445017	1	1.95666e-06	9.01935e-08
2	1	0	0	0	6.1267	0.207852	0.207725	0.000443878	1	2.00144e-06	9.22044e-08
2	1	0	0	0	6.2267	0.212852	0.212705	0.000444194	1	2.04611e-06	9.44824e-08
2	1	0	0	0	6.3267	0.217853	0.217729	0.000442714	1	2.09071e-06	9.63917e-08
2	1	0	0	0	6.4267	0.222853	0.222676	0.000443067	1	2.13527e-06	9.86602e-08
2	1	0	0	0	6.5267	0.227853	0.227688	0.000442784	1	2.17983e-06	1.00817e-07
2	1	0	0	0	6.6267	0.232853	0.232727	0.000442772	1	2.22443e-06	1.03045e-07
2	1	0	0	0	6.7267	0.237853	0.237712	0.000442837	1	2.26909e-06	1.05268e-07
2	1	0	0	0	6.8267	0.242854	0.242684	0.000444441	1	2.31384e-06	1.07859e-07
2	1	0	0	0	6.9267	0.247854	0.24772	0.000446995	1	2.35871e-06	1.1073e-07
2	1	0	0	0	7.0267	0.252854	0.252681	0.000446994	1	2.40369e-06	1.12947e-07
2	1	0	0	0	7.1267	0.257854	0.257726	0.000448984	1	2.44889e-06	1.15715e-07
2	1	0	0	0	7.2267	0.262854	0.262729	0.000451463	1	2.49427e-06	1.18612e-07
2	1	0	0	0	7.3267	0.267855	0.267718	0.000454384	1	2.53986e-06	1.21647e-07
2	1	0	0	0	7.4267	0.272855	0.272675	0.00045771	1	2.58569e-06	1.24806e-07
2	1	0	0	0	7.5267	0.277855	0.277699	0.000457776	1	2.63178e-06	1.27124e-07
2	1	0	0	0	7.6267	0.282855	0.282663	0.000462305	1	2.67816e-06	1.30676e-07
2	1	0	0	0	7.7267	0.287855	0.287713	0.00046487	1	2.72484e-06	1.33749e-07
2	1	0	0	0	7.8267	0.292856	0.292711	0.00046848	1	2.77184e-06	1.37129e-07
2	1	0	0	0	7.9267	0.297856	0.29772	0.000472329	1	2.81918e-06	1.40622e-07
2	0	0	1	0	8.0153	0.297706	0.297488	0.00034626	1	2.8561e-06	1.03008e-07
2	0	0	1	0	8.1153	0.292706	0.292522	0.000301944	1	2.88817e-06	8.83253e-08
2	0	0	1	0	8.2153	0.287705	0.287515	0.000274955	1	2.91672e-06	7.90538e-08
2	0	0	1	0	8.3153	0.282705	0.282523	0.000252093	1	2.94273e-06	7.12221e-08
2	0	0	1	0	8.4153	0.277705	0.277517	0.000233965	1	2.96675e-06	6.49291e-08
2	0	0	1	0	8.5153	0.272705	0.272512	0.000218072	1	2.98917e-06	5.94273e-08
2	0	0	1	0	8.6153	0.267705	0.267533	0.000206547	1	3.01024e-06	5.5258e-08
2	0	0	1	0	8.7153	0.262704	0.262546	0.000195779	1	3.03014e-06	5.14009e-08
2	0	0	1	0	8.8153	0.257704	0.257505	0.000185196	1	3.04905e-06	4.76889e-08
2	0	0	1	0	8.9153	0.252704	0.252485	0.000178111	1	3.06704e-06	4.49704e-08
2	0	0	1	0	9.0153	0.247704	0.247502	0.000169853	1	3.0843e-06	4.20389e-08
2	0	0	1	0	9.1153	0.242704	0.242483	0.000163959	1	3.10085e-06	3.97572e-08
2	0	0	1	0	9.2153	0.237703	0.237474	0.000157432	1	3.11676e-06	3.7386e-08
2	0	0	1	0	9.3153	0.232703	0.232492	0.000153731	1	3.1321e-06	3.57414e-08
2	0	0	1	0	9.4153	0.227703	0.2275	0.000146936	1	3.1469e-06	3.3428e-08
2	0	0	1	0	9.5153	0.222703	0.222497	0.000142845	1	3.16122e-06	3.17825e-08
2	0	0	1	0	9.6153	0.217703	0.217511	0.000139351	1	3.17507e-06	3.03104e-08
2	0	0	1	0	9.7153	0.212702	0.212479	0.000133541	1	3.18848e-06	2.83748e-08
2	0	0	1	0	9.8153	0.207702	0.207506	0.000129498	1	3.20149e-06	2.68717e-08
2	0	0	1	0	9.9153	0.202702	0.20254	0.000126555	1	3.21408e-06	2.56325e-08
2	0	0	1	0	10.0153	0.197702	0.197499	0.000122551	1	3.22631e-06	2.42036e-08
2	0	0	1	0	10.1153	0.192702	0.192546	0.000117398	1	3.2382e-06	2.26046e-08
2	0	0	1	0	10.2153	0.187701	0.187527	0.000115812	1	3.2497e-06	2.17179e-08
2	0	0	1	0	10.3153	0.182701	0.1825	0.000111112	1	3.26087e-06	2.02779e-08
2	0	0	1	0	10.4153	0.177701	0.177532	0.000109377	1	3.27171e-06	1.9418e-08
2	0	0	1	0	10.5153	0.172701	0.172513	0.000105263	1	3.2822e-06	1.81592e-08
2	0	0	1	0	10.6153	0.167701	0.167494	0.000102225	1	3.29237e-06	1.71221e-08
2	0	0	1	0	10.7153	0.1627	0.162475	9.92715e-05	1	3.30218e-06	1.61292e-08
2	0	0	1	0	10.8153	0.1577	0.157514	9.50057e-05	1	3.31166e-06	1.49647e-08
2	0	0	1	0	10.9153	0.1527	0.152571	8.82015e-05	1	3.32078e-06	1.3457e-08
2	0	0	1	0	11.0153	0.1477	0.147479	8.84259e-05	1	3.32952e-06	1.3041e-08
2	0	0	0	0	11.1155	0.1427	0.142544	8.44815e-05	1	3.33793e-06	1.20423e-08
2	0	0	0	0	11.2155	0.137699	0.137496	7.89898e-05	1	3.34589e-06	1.08608e-08
2	0	0	0	0	11.3155	0.132699	0.132442	7.5056e-05	1	3.35341e-06	9.94058e-09
2	0	0	0	0	11.4155	0.127699	0.12754	6.93912e-05	1	3.36046e-06	8.85016e-09
2	0	0	0	0	11.5155	0.122699	0.122516	6.32759e-05	1	3.36695e-06	7.75232e-09
2	0	0	0	0	11.6155	0.117699	0.117518	5.715e-05	1	3.3728e-06	6.71614e-09
2	0	0	0	0	11.7155	0.112698	0.112516	4.79825e-05	1	3.37794e-06	5.3988e-09
2	0	0	0	0	11.8155	0.107698	0.107539	3.9184e-05	1	3.38221e-06	4.2138e-09
2	0	0	0	0	11.9155	0.102698	0.102546	2.9165e-05	1	3.38545e-06	2.99075e-09
2	0	0	0	0	12.0155	0.0976978	0.0975196	1.62845e-05	1	3.38746e-06	1.58806e-09
2	0	0	0	0	12.1155	0.0926976	0.0925783	-1.55259e-06	1	3.38796e-06	-1.43736e-10
2	0	0	0	0	12.2155	0.0876974	0.0875682	-2.19598e-05	1	3.38662e-06	-1.92298e-09
2	0	0	0	0	12.3155	0.0826972	0.0825527	-4.52179e-05	1	3.38302e-06	-3.73286e-09
2	0	0	0	0	12.4155	0.077697	0.0774874	-7.64937e-05	1	3.37667e-06	-5.9273e-09
2	0	0	0	0	12.5155	0.0726968	0.072578	-0.000111276	1	3.36702e-06	-8.07618e-09
2	0	0	0	0	12.6155	0.0676966	0.0675392	-0.000153512	1	3.35353e-06	-1.03681e-08
2	0	0	0	0	12.7155	0.0626964	0.0625662	-0.000200585	1	3.33557e-06	-1.25498e-08
2	0	0	0	0	12.8155	0.0576962	0.0575582	-0.000253027	1	3.31263e-06	-1.45638e-08
2	0	0	0	0	12.9155	0.052696	0.0525438	-0.000305657	1	3.28444e-06	-1.60604e-08
2	0	0	0	0	13.0155	0.0476958	0.0475124	-0.000359209	1	3.25084e-06	-1.70669e-08
2	0	0	0	0	13.1155	0.0426956	0.0425659	-0.00040803	1	3.2122e-06	-1.73682e-08
2	0	0	0	0	13.2155	0.0376954	0.0375483	-0.000447748	1	3.16916e-06	-1.68122e-08
2	0	0	0	0	13.3155	0.0326952	0.0326028	-0.000476185	1	3.12266e-06	-1.5525e-08
2	0	0	0	0	13.4155	0.027695	0.0275736	-0.000491533	1	3.0739e-06	-1.35533e-08
2	0	0	0	0	13.5155	0.0226948	0.0225571	-0.000496583	1	3.0241e-06	-1.12015e-08
2	0	0	0	0	13.6155	0.0176946	0.0175141	-0.000491708	1	2.97437e-06	-8.61182e-09
2	0	0	0	0	13.7155	0.0126944	0.0125421	-0.000478631	1	2.92562e-06	-6.00305e-09
2	0	0	0	0	13.8155	0.00769417	0.00756695	-0.000460575	1	2.87844e-06	-3.48515e-09
2	0	0	0	0	13.9155	0.00269396	0.00256952	-0.00043961	1	2.83321e-06	-1.12959e-09
2	0	0	0	0	14.0155	-0.00230624	-0.00250529	-0.000417058	1	2.79005e-06	1.04485e-09
2	0	0	0	0	14.1155	-0.00730644	-0.0074953	-0.000397681	1	2.74904e-06	2.98074e-09
2	0	0	0	0	14.2155	-0.0123066	-0.012462	-0.000378484	1	2.71006e-06	4.71666e-09
2	0	0	0	0	14.3155	-0.0173068	-0.0175103	-0.000359382	1	2.67296e-06	6.29289e-09
2	0	0	0	0	14.4155	-0.0223071	-0.022477	-0.000343951	1	2.63756e-06	7.73098e-09
2	0	0	0	0	14.5155	-0.0273073	-0.0274776	-0.000328862	1	2.60371e-06	9.03634e-09
2	0	0	0	0	14.6155	-0.0323075	-0.0324793	-0.00031557	1	2.57124e-06	1.02495e-08
2	0	0	0	0	14.7155	-0.0373077	-0.0374905	-0.000304334	1	2.54001e-06	1.14096e-08
2	0	0	0	0	14.8155	-0.0423079	-0.042436	-0.000293614	1	2.50984e-06	1.24598e-08
2	0	0	0	0	14.9155	-0.0473081	-0.0474556	-0.000285796	1	2.48067e-06	1.35626e-08
2	0	0	0	0	15.0155	-0.0523083	-0.0525114	-0.000279656	1	2.45236e-06	1.46851e-08
2	0	0	0	0	15.1155	-0.0573085	-0.057512	-0.000268625	1	2.42482e-06	1.54491e-08
2	0	0	0	0	15.2155	-0.0623087	-0.062466	-0.000261225	1	2.39804e-06	1.63177e-08
2	0	0	0	0	15.3155	-0.0673089	-0.0674655	-0.000256466	1	2.37189e-06	1.73026e-08
2	0	0	0	0	15.4155	-0.0723091	-0.0724958	-0.000249623	1	2.34635e-06	1.80967e-08
2	0	0	0	0	15.5155	-0.0773093	-0.0774911	-0.000246154	1	2.32137e-06	1.90748e-08
2	0	0	0	0	15.6155	-0.0823095	-0.0824673	-0.000238682	1	2.29683e-06	1.96835e-08
2	0	0	0	0	15.7155	-0.0873097	-0.0875019	-0.00023716	1	2.27276e-06	2.07519e-08
2	0	0	0	0	15.8155	-0.0923099	-0.0924622	-0.00023506	1	2.24898e-06	2.17341e-08
2	0	0	0	0	15.9155	-0.0973101	-0.0974893	-0.000228821	1	2.22558e-06	2.23076e-08
2	0	0	1	0	16.0157	-0.10231	-0.102468	-0.000226902	1	2.20249e-06	2.32501e-08
2	0	0	1	0	16.1157	-0.107311	-0.107448	-0.000222778	1	2.17978e-06	2.39371e-08
2	0	0	1	0	16.2157	-0.112311	-0.11249	-0.000220647	1	2.15733e-06	2.48207e-08
2	0	0	1	0	16.3157	-0.117311	-0.117442	-0.000217037	1	2.1351e-06	2.54892e-08
2	0	0	1	0	16.4157	-0.122311	-0.122476	-0.000209067	1	2.11329e-06	2.56058e-08
2	0	0	1	0	16.5157	-0.127311	-0.127422	-0.000207014	1	2.09289e-06	2.63782e-08
2	0	0	1	0	16.6157	-0.132312	-0.132445	-0.000209706	1	2.07169e-06	2.77745e-08
2	0	0	1	0	16.7157	-0.137312	-0.137481	-0.0002113	1	2.05036e-06	2.90498e-08
2	0	0	1	0	16.8157	-0.142312	-0.142466	-0.000208818	1	2.02913e-06	2.97495e-08
2	0	0	1	0	16.9157	-0.147312	-0.147471	-0.000208156	1	2.00806e-06	3.06969e-08
2	0	0	1	0	17.0157	-0.152312	-0.152449	-0.000206744	1	1.98715e-06	3.1518e-08
2	0	0	1	0	17.1157	-0.157313	-0.157499	-0.000203651	1	1.96635e-06	3.20748e-08
2	0	0	1	0	17.2157	-0.162313	-0.16251	-0.000203817	1	1.9457e-06	3.31223e-08
2	0	0	1	0	17.3157	-0.167313	-0.167467	-0.000204195	1	1.92519e-06	3.4196e-08
2	0	0	1	0	17.4157	-0.172313	-0.172457	-0.000203648	1	1.90476e-06	3.51205e-08
2	0	0	1	0	17.5157	-0.177313	-0.177451	-0.000201616	1	1.88437e-06	3.57771e-08
2	0	0	1	0	17.6157	-0.182314	-0.182428	-0.000200512	1	1.86398e-06	3.6579e-08
2	0	0	1	0	17.7157	-0.187314	-0.18746	-0.000203139	1	1.84356e-06	3.80804e-08
2	0	0	1	0	17.8157	-0.192314	-0.192446	-0.000202137	1	1.8231e-06	3.89005e-08
2	0	0	1	0	17.9157	-0.197314	-0.197447	-0.000203354	1	1.80257e-06	4.01518e-08
2	1	0	0	1	18.0051	-0.198214	-0.198291	-9.0934e-05	1	1.78804e-06	1.80314e-08
2	1	0	0	1	18.1051	-0.193214	-0.193307	-7.03873e-05	1	1.78048e-06	1.36063e-08
2	1	0	0	1	18.2051	-0.188214	-0.188354	-5.63868e-05	1	1.7745e-06	1.06207e-08
2	1	0	0	1	18.3051	-0.183214	-0.183345	-5.00896e-05	1	1.76951e-06	9.18366e-09
2	1	0	0	1	18.4051	-0.178213	-0.178338	-4.0461e-05	1	1.76528e-06	7.21572e-09
2	1	0	0	1	18.5051	-0.173213	-0.173317	-3.33689e-05	1	1.76186e-06	5.78339e-09
2	1	0	0	1	18.6051	-0.168213	-0.168366	-2.68279e-05	1	1.75915e-06	4.51692e-09
2	1	0	0	1	18.7051	-0.163213	-0.163354	-2.04389e-05	1	1.75703e-06	3.33877e-09
2	1	0	0	1	18.8051	-0.158213	-0.158333	-1.83934e-05	1	1.75542e-06	2.91228e-09
2	1	0	0	1	18.9051	-0.153212	-0.153354	-1.31808e-05	1	1.75422e-06	2.02132e-09
2	1	0	0	1	19.0051	-0.148212	-0.14832	-9.7204e-06	1	1.75337e-06	1.44173e-09
2	1	0	0	1	19.1051	-0.143212	-0.143366	-5.72835e-06	1	1.75289e-06	8.21251e-10
2	1	0	0	1	19.2051	-0.138212	-0.138307	-3.43203e-06	1	1.75274e-06	4.74675e-10
2	1	0	0	1	19.3051	-0.133212	-0.133333	4.4874e-07	1	1.75289e-06	-5.98319e-11
2	1	0	0	1	19.4051	-0.128211	-0.128289	3.87731e-06	1	1.75333e-06	-4.97417e-10
2	1	0	0	1	19.5051	-0.123211	-0.12335	4.3719e-06	1	1.75401e-06	-5.39274e-10
2	1	0	0	1	19.6051	-0.118211	-0.118324	8.06544e-06	1	1.75495e-06	-9.54334e-10
2	1	0	0	1	19.7051	-0.113211	-0.113333	8.93097e-06	1	1.75612e-06	-1.01217e-09
2	1	0	0	1	19.8051	-0.108211	-0.10832	1.15664e-05	1	1.75748e-06	-1.25287e-09
2	1	0	0	1	19.9051	-0.10321	-0.103302	1.29954e-05	1	1.75903e-06	-1.34246e-09
2	1	0	1	1	20.0053	-0.0982101	-0.0983575	1.56892e-05	2	1.76079e-06	-1.54315e-09
2	1	0	1	1	20.1053	-0.09321	-0.0933559	1.69363e-05	2	1.76275e-06	-1.5811e-09
2	1	0	1	1	20.2053	-0.0882097	-0.0883839	1.94004e-05	2	1.76488e-06	-1.71468e-09
2	1	0	1	1	20.3053	-0.0832095	-0.0833175	2.06704e-05	2	1.76714e-06	-1.72221e-09
2	1	0	1	1	20.4053	-0.0782093	-0.0783371	2.17868e-05	2	1.76961e-06	-1.70671e-09
2	1	0	1	1	20.5053	-0.0732091	-0.0733577	2.34967e-05	2	1.77226e-06	-1.72366e-09
2	1	0	1	1	20.6053	-0.0682089	-0.0683995	2.5233e-05	2	1.77504e-06	-1.72593e-09
2	1	0	1	1	20.7053	-0.0632087	-0.0633893	2.69835e-05	2	1.77796e-06	-1.71047e-09
2	1	0	1	1	20.8053	-0.0582085	-0.0583612	2.7434e-05	2	1.78103e-06	-1.60108e-09
2	1	0	1	1	20.9053	-0.0532083	-0.0533892	2.87446e-05	2	1.78423e-06	-1.53465e-09
2	1	0	1	1	21.0053	-0.0482081	-0.0483334	3.23604e-05	2	1.78761e-06	-1.56409e-09
2	1	0	1	1	21.1053	-0.0432079	-0.043319	3.25035e-05	2	1.79111e-06	-1.40802e-09
2	1	0	1	1	21.2053	-0.0382077	-0.0383736	3.47822e-05	2	1.79478e-06	-1.33472e-09
2	1	0	1	1	21.3053	-0.0332075	-0.0333623	3.73664e-05	2	1.79862e-06	-1.24663e-09
2	1	0	1	1	21.4053	-0.0282073	-0.0283225	3.96345e-05	2	1.80267e-06	-1.12255e-09
2	1	0	1	1	21.5053	-0.0232071	-0.0233685	4.19308e-05	2	1.80696e-06	-9.79861e-10
2	1	0	1	1	21.6053	-0.0182069	-0.0183595	4.37325e-05	2	1.81151e-06	-8.02905e-10
2	1	0	1	1	21.7053	-0.0132067	-0.0133398	4.83375e-05	2	1.81641e-06	-6.44811e-10
2	1	0	1	1	21.8053	-0.00820648	-0.00834552	5.45181e-05	2	1.82172e-06	-4.54982e-10
2	1	0	1	1	21.9053	-0.00320627	-0.00331947	5.9623e-05	2	1.82756e-06	-1.97917e-10
2	1	0	1	1	22.0053	0.00179393	0.0017246	6.63565e-05	2	1.83415e-06	1.14439e-10
2	1	0	1	1	22.1053	0.00679413	0.00668386	7.61247e-05	2	1.84155e-06	5.08807e-10
2	1	0	1	1	22.2053	0.0117943	0.0116919	8.95599e-05	2	1.85007e-06	1.04712e-09
2	1	0	1	1	22.3053	0.0167945	0.0166967	0.000106003	2	1.86002e-06	1.76991e-09
2	1	0	1	1	22.4053	0.0217947	0.0217048	0.000124231	2	1.87179e-06	2.6964e-09
2	1	0	1	1	22.5053	0.0267949	0.026717	0.000150276	2	1.88583e-06	4.01493e-09
2	1	0	1	1	22.6053	0.0317951	0.0317208	0.000182451	2	1.90267e-06	5.7875e-09
2	1	0	1	1	22.7053	0.0367953	0.0366949	0.000218984	2	1.92291e-06	8.03559e-09
2	1	0	1	1	22.8053	0.0417955	0.0416574	0.00025904	2	1.94709e-06	1.07909e-08
2	1	0	1	1	22.9053	0.0467957	0.0466877	0.000307353	2	1.9757e-06	1.43496e-08
2	1	0	1	1	23.0053	0.0517959	0.0516946	0.000358497	2	2.00918e-06	1.85324e-08
2	1	0	1	1	23.1053	0.0567961	0.0566857	0.000406045	2	2.04764e-06	2.30169e-08
2	1	0	1	1	23.2053	0.0617963	0.0616651	0.000454278	2	2.091e-06	2.80131e-08
2	1	0	1	1	23.3053	0.0667965	0.0667049	0.000495785	2	2.13893e-06	3.30713e-08
2	1	0	1	1	23.4053	0.0717967	0.0716536	0.000531775	2	2.19075e-06	3.81036e-08
2	1	0	1	1	23.5053	0.0767969	0.0766648	0.000558527	2	2.24563e-06	4.28194e-08
2	1	0	1	1	23.6053	0.0817971	0.0816951	0.000574534	2	2.30263e-06	4.69366e-08
2	1	0	1	1	23.7053	0.0867973	0.0866543	0.000581213	2	2.36078e-06	5.03646e-08
2	1	0	1	1	23.8053	0.0917976	0.0916687	0.000580092	2	2.41923e-06	5.31763e-08
2	1	0	1	1	23.9053	0.0967978	0.096717	0.000573141	2	2.47725e-06	5.54325e-08
2	1	0	1	1	24.0053	0.101798	0.101679	0.000560666	2	2.5343e-06	5.70083e-08
2	1	0	1	1	24.1053	0.106798	0.106686	0.000546466	2	2.59005e-06	5.83006e-08
2	1	0	1	1	24.2053	0.111798	0.111648	0.000531698	2	2.64428e-06	5.93629e-08
2	1	0	1	1	24.3053	0.116799	0.116655	0.000515101	2	2.69692e-06	6.0089e-08
2	1	0	1	1	24.4053	0.121799	0.121669	0.000498986	2	2.74792e-06	6.07112e-08
2	1	0	1	1	24.5053	0.126799	0.126618	0.000482396	2	2.79734e-06	6.10799e-08
2	1	0	1	1	24.6053	0.131799	0.131581	0.000469951	2	2.84527e-06	6.18368e-08
2	1	0	1	1	24.7053	0.136799	0.136659	0.00045569	2	2.89182e-06	6.22742e-08
2	1	0	1	1	24.8053	0.1418	0.141613	0.000443187	2	2.9371e-06	6.27612e-08
2	1	0	1	1	24.9053	0.1468	0.146635	0.000431283	2	2.98119e-06	6.32413e-08
2	1	0	0	1	25.0055	0.1518	0.151609	0.000424075	2	3.02434e-06	6.42936e-08
2	1	0	0	1	25.1055	0.1568	0.156726	0.000418761	2	3.06674e-06	6.5631e-08
2	1	0	0	1	25.2055	0.1618	0.161616	0.000406283	2	3.10834e-06	6.56618e-08
2	1	0	0	1	25.3055	0.166801	0.16665	0.000394028	2	3.14866e-06	6.56649e-08
2	1	0	0	1	25.4055	0.171801	0.171657	0.000386857	2	3.18794e-06	6.64067e-08
2	1	0	0	1	25.5055	0.176801	0.17662	0.000386025	2	3.22687e-06	6.81796e-08
2	1	0	0	1	25.6055	0.181801	0.181701	0.000379032	2	3.26537e-06	6.88704e-08
2	1	0	0	1	25.7055	0.186801	0.186658	0.000373688	2	3.30325e-06	6.97519e-08
2	1	0	0	1	25.8055	0.191802	0.191698	0.000368756	2	3.34058e-06	7.06898e-08
2	1	0	0	1	25.9055	0.196802	0.196644	0.0003644	2	3.37746e-06	7.16573e-08
2	1	0	0	1	26.0055	0.201802	0.201631	0.000361502	2	3.41395e-06	7.289e-08
2	1	0	0	1	26.1055	0.206802	0.206617	0.000357361	2	3.45011e-06	7.38369e-08
2	1	0	0	1	26.2055	0.211802	0.211681	0.000355595	2	3.48598e-06	7.52728e-08
2	1	0	0	1	26.3055	0.216803	0.216697	0.000353883	2	3.5216e-06	7.66853e-08
2	1	0	0	1	26.4055	0.221803	0.221641	0.000349817	2	3.55703e-06	7.75338e-08
2	1	0	0	1	26.5055	0.226803	0.226643	0.000349711	2	3.59228e-06	7.92595e-08
2	1	0	0	1	26.6055	0.231803	0.23168	0.000348687	2	3.62744e-06	8.07839e-08
2	1	0	0	1	26.7055	0.236803	0.236653	0.000348704	2	3.66249e-06	8.25221e-08
2	1	0	0	1	26.8055	0.241804	0.241669	0.000347494	2	3.69749e-06	8.39786e-08
2	1	0	0	1	26.9055	0.246804	0.246657	0.000346745	2	3.73248e-06	8.55271e-08
2	1	0	0	1	27.0055	0.251804	0.251616	0.000347712	2	3.76749e-06	8.74898e-08
2	1	0	0	1	27.1055	0.256804	0.256697	0.000349692	2	3.80259e-06	8.97649e-08
2	1	0	0	1	27.2055	0.261804	0.26167	0.000349448	2	3.83777e-06	9.14401e-08
2	1	0	0	1	27.3055	0.266805	0.266653	0.000351449	2	3.87311e-06	9.3715e-08
2	1	0	0	1	27.4055	0.271805	0.271624	0.000354758	2	3.90865e-06	9.63606e-08
2	1	0	0	1	27.5055	0.276805	0.276652	0.000357821	2	3.94442e-06	9.89918e-08
2	1	0	0	1	27.6055	0.281805	0.281637	0.000358951	2	3.98049e-06	1.01094e-07
2	1	0	0	1	27.7055	0.286805	0.286627	0.00036271	2	4.01686e-06	1.03962e-07
2	1	0	0	1	27.8055	0.291806	0.291598	0.000367705	2	4.05364e-06	1.07222e-07
2	1	0	0	1	27.9055	0.296806	0.296632	0.000371408	2	4.09084e-06	1.10171e-07
2	0	0	0	1	27.9951	0.298706	0.298522	0.000267883	2	4.12187e-06	7.9969e-08
2	0	0	0	1	28.0951	0.293706	0.293533	0.000231868	2	4.14641e-06	6.80609e-08
2	0	0	0	1	28.1951	0.288705	0.288507	0.000211139	2	4.16839e-06	6.09152e-08
2	0	0	0	1	28.2951	0.283705	0.283552	0.00019698	2	4.1886e-06	5.5854e-08
2	0	0	0	1	28.3951	0.278705	0.278503	0.000182244	2	4.20726e-06	5.07556e-08
2	0	0	0	1	28.4951	0.273705	0.273569	0.000170943	2	4.22466e-06	4.67647e-08
2	0	0	0	1	28.5951	0.268705	0.268542	0.000162275	2	4.24119e-06	4.35777e-08
2	0	0	0	1	28.6951	0.263704	0.263513	0.000155196	2	4.25694e-06	4.0896e-08
2	0	0	0	1	28.7951	0.258704	0.258552	0.0001483	2	4.27191e-06	3.83432e-08
2	0	0	0	1	28.8951	0.253704	0.253472	0.00014288	2	4.28623e-06	3.62162e-08
2	0	0	0	1	28.9951	0.248704	0.248549	0.000136205	2	4.30001e-06	3.38537e-08
2	0	0	0	1	29.0951	0.243704	0.243457	0.000131411	2	4.31326e-06	3.1993e-08
2	0	0	0	1	29.1951	0.238703	0.238494	0.000126882	2	4.32604e-06	3.02606e-08
2	0	0	0	1	29.2951	0.233703	0.233495	0.000123489	2	4.33839e-06	2.88341e-08
2	0	0	0	1	29.3951	0.228703	0.228528	0.000119493	2	4.35035e-06	2.73075e-08
2	0	0	0	1	29.4951	0.223703	0.223539	0.000115814	2	4.36192e-06	2.58889e-08
2	0	0	0	1	29.5951	0.218703	0.218515	0.000111845	2	4.37311e-06	2.44397e-08
2	0	0	0	1	29.6951	0.213702	0.21349	0.000109419	2	4.38397e-06	2.33599e-08
2	0	0	0	1	29.7951	0.208702	0.208556	0.000105943	2	4.39451e-06	2.20951e-08
2	0	0	0	1	29.8951	0.203702	0.20345	0.000102011	2	4.40473e-06	2.07542e-08
2	0	0	0	1	29.9951	0.198702	0.198491	0.000100386	2	4.41464e-06	1.99257e-08
2	0	0	0	1	30.0951	0.193702	0.193515	9.77842e-05	2	4.42428e-06	1.89227e-08
2	0	0	0	1	30.1951	0.188701	0.18847	9.44705e-05	2	4.43361e-06	1.78048e-08
2	0	0	0	1	30.2951	0.183701	0.183495	9.06974e-05	2	4.44267e-06	1.66425e-08
2	0	0	0	1	30.3951	0.178701	0.178523	8.73342e-05	2	4.45143e-06	1.55911e-08
2	0	0	0	1	30.4951	0.173701	0.173543	8.51439e-05	2	4.45992e-06	1.47761e-08
2	0	0	0	1	30.5951	0.168701	0.168555	8.27769e-05	2	4.46814e-06	1.39525e-08
2	0	0	0	1	30.6951	0.1637	0.163492	7.92989e-05	2	4.47606e-06	1.29647e-08
2	0	0	0	1	30.7951	0.1587	0.15857	7.6379e-05	2	4.48367e-06	1.21114e-08
2	0	0	0	1	30.8951	0.1537	0.153591	7.36093e-05	2	4.49099e-06	1.13057e-08
2	0	0	0	1	30.9951	0.1487	0.148469	7.08378e-05	2	4.49797e-06	1.05172e-08
2	0	0	1	1	31.0953	0.1437	0.143496	6.68334e-05	2	4.50471e-06	9.59033e-09
2	0	0	1	1	31.1953	0.138699	0.138534	6.64254e-05	2	4.51125e-06	9.20215e-09
2	0	0	1	1	31.2953	0.133699	0.13355	5.97908e-05	2	4.51743e-06	7.98506e-09
2	0	0	1	1	31.3953	0.128699	0.128496	5.3536e-05	2	4.52295e-06	6.87918e-09
2	0	0	1	1	31.4953	0.123699	0.123543	4.75426e-05	2	4.52784e-06	5.87358e-09
2	0	0	1	1	31.5953	0.118699	0.118522	4.28564e-05	2	4.53209e-06	5.07941e-09
2	0	0	1	1	31.6953	0.113698	0.113591	3.52273e-05	2	4.53569e-06	4.00151e-09
2	0	0	1	1	31.7953	0.108698	0.10855	2.61003e-05	2	4.53854e-06	2.8332e-09
2	0	0	1	1	31.8953	0.103698	0.103515	1.74097e-05	2	4.54056e-06	1.80215e-09
2	0	0	1	1	31.9953	0.0986978	0.0985394	6.15773e-06	2	4.54149e-06	6.06779e-10
2	0	0	1	1	32.0953	0.0936976	0.0935526	-1.03263e-05	2	4.54104e-06	-9.6605e-10
2	0	0	1	1	32.1953	0.0886974	0.0885763	-2.9603e-05	2	4.53891e-06	-2.62212e-09
2	0	0	1	1	32.2953	0.0836972	0.0835397	-5.27357e-05	2	4.53471e-06	-4.40552e-09
2	0	0	1	1	32.3953	0.078697	0.0785614	-7.87953e-05	2	4.52802e-06	-6.19027e-09
2	0	0	1	1	32.4953	0.0736968	0.0735321	-0.000111926	2	4.5183e-06	-8.23015e-09
2	0	0	1	1	32.5953	0.0686966	0.0684849	-0.000151168	2	4.50502e-06	-1.03527e-08
2	0	0	1	1	32.6953	0.0636964	0.0635383	-0.000195642	2	4.4876e-06	-1.24308e-08
2	0	0	1	1	32.7953	0.0586962	0.0585632	-0.000243121	2	4.4655e-06	-1.4238e-08
2	0	0	1	1	32.8953	0.053696	0.0535371	-0.000294368	2	4.43834e-06	-1.57596e-08
2	0	0	1	1	32.9953	0.0486958	0.0485429	-0.000348997	2	4.40592e-06	-1.69413e-08
2	0	0	1	1	33.0953	0.0436956	0.0435221	-0.000398584	2	4.36838e-06	-1.73472e-08
2	0	0	1	1	33.1953	0.0386954	0.038565	-0.000440182	2	4.3262e-06	-1.69756e-08
2	0	0	1	1	33.2953	0.0336952	0.0335039	-0.00047379	2	4.28017e-06	-1.58738e-08
2	0	0	1	1	33.3953	0.028695	0.028497	-0.000496963	2	4.23137e-06	-1.41619e-08
2	0	0	1	1	33.4953	0.0236948	0.023508	-0.000507077	2	4.18097e-06	-1.19204e-08
2	0	0	1	1	33.5953	0.0186946	0.0185604	-0.00050465	2	4.13009e-06	-9.36653e-09
2	0	0	1	1	33.6953	0.0136944	0.0135673	-0.000496965	2	4.07973e-06	-6.74245e-09
2	0	0	1	1	33.7953	0.00869421	0.0085094	-0.00048165	2	4.03062e-06	-4.09855e-09
2	0	0	1	1	33.8953	0.003694	0.00351833	-0.000463073	2	3.98327e-06	-1.62924e-09
2	0	0	1	1	33.9953	-0.0013062	-0.00148121	-0.000441784	2	3.93786e-06	6.54377e-10
2	0	0	1	1	34.0953	-0.0063064	-0.00647122	-0.000421089	2	3.89455e-06	2.72496e-09
2	0	0	1	1	34.1953	-0.0113066	-0.0115333	-0.0004013	2	3.8533e-06	4.62832e-09
2	0	0	1	1	34.2953	-0.0163068	-0.0164406	-0.00038302	2	3.81394e-06	6.29709e-09
2	0	0	1	1	34.3953	-0.021307	-0.0214709	-0.000366241	2	3.77634e-06	7.86353e-09
2	0	0	1	1	34.4953	-0.0263072	-0.026479	-0.000349819	2	3.74037e-06	9.26284e-09
2	0	0	1	1	34.5953	-0.0313074	-0.0314605	-0.000335645	2	3.70587e-06	1.05596e-08
2	0	0	1	1	34.6953	-0.0363076	-0.0364961	-0.000322899	2	3.6727e-06	1.17845e-08
2	0	0	1	1	34.7953	-0.0413078	-0.0414956	-0.000313065	2	3.64066e-06	1.29908e-08
2	0	0	1	1	34.8953	-0.046308	-0.0464909	-0.000303933	2	3.60967e-06	1.41301e-08
2	0	0	1	1	34.9953	-0.0513082	-0.0514979	-0.000294896	2	3.57957e-06	1.51865e-08
2	0	0	1	1	35.0953	-0.0563084	-0.0565293	-0.000288276	2	3.55025e-06	1.6296e-08
2	0	0	1	1	35.1953	-0.0613086	-0.0614397	-0.000281051	2	3.52166e-06	1.72677e-08
2	0	0	1	1	35.2953	-0.0663089	-0.0664934	-0.000275635	2	3.49369e-06	1.83279e-08
2	0	0	1	1	35.3953	-0.071309	-0.0715375	-0.000269412	2	3.46633e-06	1.92731e-08
2	0	0	1	1	35.4953	-0.0763093	-0.0764882	-0.000263207	2	3.43957e-06	2.01322e-08
2	0	0	1	1	35.5953	-0.0813095	-0.0814687	-0.000257251	2	3.41332e-06	2.09579e-08
2	0	0	1	1	35.6953	-0.0863097	-0.086499	-0.000253794	2	3.38757e-06	2.19529e-08
2	0	0	1	1	35.7953	-0.0913099	-0.0915049	-0.000250567	2	3.36226e-06	2.29281e-08
2	0	0	1	1	35.8953	-0.0963101	-0.0964726	-0.000245778	2	3.33738e-06	2.37109e-08
2	0	0	0	1	35.9955	-0.10131	-0.101498	-0.000241263	2	3.31284e-06	2.44876e-08
2	0	0	0	1	36.0955	-0.10631	-0.106475	-0.000238529	2	3.28868e-06	2.53973e-08
2	0	0	0	1	36.1955	-0.111311	-0.111465	-0.000236745	2	3.26484e-06	2.63887e-08
2	0	0	0	1	36.2955	-0.116311	-0.116479	-0.000233991	2	3.2413e-06	2.72551e-08
2	0	0	0	1	36.3955	-0.121311	-0.121433	-0.000230776	2	3.21804e-06	2.80239e-08
2	0	0	0	1	36.4955	-0.126311	-0.126471	-0.000227028	2	3.19505e-06	2.87124e-08
2	0	0	0	1	36.5955	-0.131311	-0.131475	-0.000225381	2	3.17229e-06	2.9632e-08
2	0	0	0	1	36.6955	-0.136312	-0.136439	-0.000222732	2	3.14976e-06	3.03894e-08
2	0	0	0	1	36.7955	-0.141312	-0.141479	-0.000220428	2	3.12743e-06	3.1186e-08
2	0	0	0	1	36.8955	-0.146312	-0.146492	-0.000219646	2	3.10528e-06	3.21765e-08
2	0	0	0	1	36.9955	-0.151312	-0.151451	-0.000217947	2	3.08329e-06	3.30082e-08
2	0	0	0	1	37.0955	-0.156313	-0.156442	-0.000217871	2	3.06139e-06	3.40841e-08
2	0	0	0	1	37.1955	-0.161313	-0.161465	-0.00021503	2	3.03964e-06	3.47198e-08
2	0	0	0	1	37.2955	-0.166313	-0.166439	-0.000215954	2	3.01798e-06	3.59431e-08
2	0	0	0	1	37.3955	-0.171313	-0.171419	-0.000214665	2	2.99639e-06	3.67977e-08
2	0	0	0	1	37.4955	-0.176313	-0.176513	-0.000214152	2	2.97484e-06	3.78007e-08
2	0	0	0	1	37.5955	-0.181314	-0.181442	-0.000213453	2	2.95334e-06	3.87293e-08
2	0	0	0	1	37.6955	-0.186314	-0.186478	-0.000211833	2	2.93187e-06	3.95023e-08
2	0	0	0	1	37.7955	-0.191314	-0.191444	-0.000214661	2	2.9104e-06	4.10956e-08
2	0	0	0	1	37.8955	-0.196314	-0.196459	-0.000212745	2	2.88889e-06	4.17957e-08
2	1	0	1	0	37.9849	-0.199214	-0.199282	-0.000107381	2	2.87127e-06	2.13991e-08
2	1	0	1	0	38.0849	-0.194214	-0.194357	-8.06783e-05	2	2.86251e-06	1.56804e-08
2	1	0	1	0	38.1849	-0.189214	-0.189344	-6.43992e-05	2	2.85559e-06	1.21936e-08
2	1	0	1	0	38.2849	-0.184214	-0.184358	-5.56043e-05	2	2.84981e-06	1.02511e-08
2	1	0	1	0	38.3849	-0.179213	-0.179273	-4.68783e-05	2	2.84491e-06	8.404e-09
2	1	0	1	0	38.4849	-0.174213	-0.174307	-4.19995e-05	2	2.84073e-06	7.32081e-09
2	1	0	1	0	38.5849	-0.169213	-0.169313	-3.68169e-05	2	2.83715e-06	6.23357e-09
2	1	0	1	0	38.6849	-0.164213	-0.164344	-3.01788e-05	2	2.8341e-06	4.9597e-09
2	1	0	1	0	38.7849	-0.159213	-0.159337	-2.49997e-05	2	2.83152e-06	3.98338e-09
2	1	0	1	0	38.8849	-0.154212	-0.154354	-2.28253e-05	2	2.82941e-06	3.52318e-09
2	1	0	1	0	38.9849	-0.149212	-0.149375	-1.87043e-05	2	2.82766e-06	2.79395e-09
2	1	0	1	0	39.0849	-0.144212	-0.144353	-1.40534e-05	2	2.82627e-06	2.02865e-09
2	1	0	1	0	39.1849	-0.139212	-0.139289	-1.25396e-05	2	2.82523e-06	1.74662e-09
2	1	0	1	0	39.2849	-0.134212	-0.13433	-9.02621e-06	2	2.82447e-06	1.21249e-09
2	1	0	1	0	39.3849	-0.129211	-0.129331	-6.55502e-06	2	2.82401e-06	8.47769e-10
2	1	0	1	0	39.4849	-0.124211	-0.124317	-2.28741e-06	2	2.82381e-06	2.84363e-10
2	1	0	1	0	39.5849	-0.119211	-0.119337	-1.93943e-06	2	2.82387e-06	2.31446e-10
2	1	0	1	0	39.6849	-0.114211	-0.114291	6.18997e-08	2	2.82418e-06	-7.0746e-12
2	1	0	1	0	39.7849	-0.109211	-0.109325	4.43373e-06	2	2.8247e-06	-4.84715e-10
2	1	0	1	0	39.8849	-0.10421	-0.104371	6.13653e-06	2	2.82544e-06	-6.40474e-10
2	1	0	1	0	39.9849	-0.0992102	-0.0993636	8.46111e-06	3	2.82639e-06	-8.40726e-10
2	1	0	0	0	40.0851	-0.09421	-0.0943651	8.42048e-06	3	2.82749e-06	-7.946e-10
2	1	0	0	0	40.1851	-0.0892098	-0.0893454	1.15594e-05	3	2.82883e-06	-1.03278e-09
2	1	0	0	0	40.2851	-0.0842096	-0.0843575	1.51522e-05	3	2.83053e-06	-1.2782e-09
2	1	0	0	0	40.3851	-0.0792094	-0.0793209	1.38486e-05	3	2.83223e-06	-1.09848e-09
2	1	0	0	0	40.4851	-0.0742092	-0.0743743	1.4534e-05	3	2.83385e-06	-1.08096e-09
2	1	0	0	0	40.5851	-0.069209	-0.0693981	1.67314e-05	3	2.83574e-06	-1.16113e-09
2	1	0	0	0	40.6851	-0.0642088	-0.0643328	2.01688e-05	3	2.83783e-06	-1.29751e-09
2	1	0	0	0	40.7851	-0.0592086	-0.0593821	2.11668e-05	3	2.84012e-06	-1.25693e-09
2	1	0	0	0	40.8851	-0.0542084	-0.0543708	2.14741e-05	3	2.84251e-06	-1.16757e-09
2	1	0	0	0	40.9851	-0.0492081	-0.0493607	2.41273e-05	3	2.8451e-06	-1.19094e-09
2	1	0	0	0	41.0851	-0.0442079	-0.0443124	2.57241e-05	3	2.84783e-06	-1.1399e-09
2	1	0	0	0	41.1851	-0.0392077	-0.0392937	2.82341e-05	3	2.85076e-06	-1.10943e-09
2	1	0	0	0	41.2851	-0.0342075	-0.034309	2.80858e-05	3	2.85382e-06	-9.63596e-10
2	1	0	0	0	41.3851	-0.0292073	-0.0293392	3.1509e-05	3	2.85704e-06	-9.24449e-10
2	1	0	0	0	41.4851	-0.0242071	-0.0243258	3.31059e-05	3	2.86053e-06	-8.05328e-10
2	1	0	0	0	41.5851	-0.0192069	-0.0193676	3.59568e-05	3	2.86428e-06	-6.96399e-10
2	1	0	0	0	41.6851	-0.0142067	-0.0143628	4.00213e-05	3	2.86835e-06	-5.74818e-10
2	1	0	0	0	41.7851	-0.00920652	-0.00935582	4.39392e-05	3	2.87283e-06	-4.11087e-10
2	1	0	0	0	41.8851	-0.00420631	-0.00436051	4.97594e-05	3	2.87782e-06	-2.16977e-10
2	1	0	0	0	41.9851	0.000793888	0.000696282	5.90118e-05	3	2.8835e-06	4.10889e-11
2	1	0	0	0	42.0851	0.00579409	0.00569053	6.68688e-05	3	2.88997e-06	3.80518e-10
2	1	0	0	0	42.1851	0.0107943	0.0107049	7.97405e-05	3	2.89748e-06	8.53615e-10
2	1	0	0	0	42.2851	0.0157945	0.0156939	9.396e-05	3	2.90638e-06	1.47459e-09
2	1	0	0	0	42.3851	0.0207947	0.0206796	0.000112005	3	2.91686e-06	2.31623e-09
2	1	0	0	0	42.4851	0.0257949	0.0256845	0.000135638	3	2.92948e-06	3.48379e-09
2	1	0	0	0	42.5851	0.0307951	0.0306851	0.000164667	3	2.9447e-06	5.05282e-09
2	1	0	0	0	42.6851	0.0357953	0.0356624	0.000199979	3	2.96304e-06	7.13173e-09
2	1	0	0	0	42.7851	0.0407955	0.0406948	0.000237183	3	2.98506e-06	9.6521e-09
2	1	0	0	0	42.8851	0.0457957	0.0456646	0.000280816	3	3.01121e-06	1.28234e-08
2	1	0	0	0	42.9851	0.0507959	0.0506896	0.000329189	3	3.04195e-06	1.66865e-08
2	1	0	0	0	43.0851	0.0557961	0.0557136	0.000378918	3	3.07754e-06	2.11109e-08
2	1	0	0	0	43.1851	0.0607963	0.0606919	0.000425617	3	3.11799e-06	2.58315e-08
2	1	0	0	0	43.2851	0.0657965	0.0656607	0.000470515	3	3.16312e-06	3.08943e-08
2	1	0	0	0	43.3851	0.0707967	0.0706846	0.000504583	3	3.21222e-06	3.56663e-08
2	1	0	0	0	43.4851	0.0757969	0.0757022	0.000531696	3	3.26431e-06	4.02505e-08
2	1	0	0	0	43.5851	0.0807971	0.0807219	0.000552486	3	3.31877e-06	4.45977e-08
2	1	0	0	0	43.6851	0.0857973	0.085661	0.0005617	3	3.37479e-06	4.81158e-08
2	1	0	0	0	43.7851	0.0907975	0.0906584	0.000565137	3	3.43151e-06	5.12345e-08
2	1	0	0	0	43.8851	0.0957977	0.0957089	0.000563274	3	3.48816e-06	5.39103e-08
2	1	0	0	0	43.9851	0.100798	0.100691	0.000552324	3	3.54415e-06	5.56143e-08
2	1	0	0	0	44.0851	0.105798	0.105717	0.000537361	3	3.59886e-06	5.68084e-08
2	1	0	0	0	44.1851	0.110798	0.110693	0.000523413	3	3.65207e-06	5.7938e-08
2	1	0	0	0	44.2851	0.115798	0.115679	0.000507791	3	3.70388e-06	5.8741e-08
2	1	0	0	0	44.3851	0.120799	0.120651	0.000491457	3	3.75409e-06	5.92951e-08
2	1	0	0	0	44.4851	0.125799	0.125654	0.000476305	3	3.80275e-06	5.98497e-08
2	1	0	0	0	44.5851	0.130799	0.130645	0.000460235	3	3.8499e-06	6.01275e-08
2	1	0	0	0	44.6851	0.135799	0.135632	0.00044784	3	3.89563e-06	6.07414e-08
2	1	0	0	0	44.7851	0.1408	0.14067	0.000435662	3	3.94002e-06	6.12845e-08
2	1	0	0	0	44.8851	0.1458	0.145664	0.000422077	3	3.98319e-06	6.14814e-08
2	1	0	1	0	44.9853	0.1508	0.150623	0.000411395	3	4.02529e-06	6.19657e-08
2	1	0	1	0	45.0853	0.1558	0.155682	0.000401825	3	4.06632e-06	6.2557e-08
2	1	0	1	0	45.1853	0.1608	0.160647	0.000395162	3	4.10638e-06	6.34815e-08
2	1	0	1	0	45.2853	0.165801	0.165664	0.000385111	3	4.14557e-06	6.37992e-08
2	1	0	1	0	45.3853	0.170801	0.170647	0.000377468	3	4.18396e-06	6.44138e-08
2	1	0	1	0	45.4853	0.175801	0.175659	0.000371339	3	4.22164e-06	6.52291e-08
2	1	0	1	0	45.5853	0.180801	0.180632	0.000364787	3	4.25868e-06	6.58924e-08
2	1	0	1	0	45.6853	0.185801	0.185611	0.000357492	3	4.29511e-06	6.63543e-08
2	1	0	1	0	45.7853	0.190802	0.190608	0.000353703	3	4.33098e-06	6.74187e-08
2	1	0	1	0	45.8853	0.195802	0.19565	0.000350421	3	4.36641e-06	6.85599e-08
2	1	0	1	0	45.9853	0.200802	0.200559	0.000347371	3	4.40158e-06	6.96685e-08
2	1	0	1	0	46.0853	0.205802	0.205676	0.000343034	3	4.43644e-06	7.05537e-08
2	1	0	1	0	46.1853	0.210802	0.21066	0.000335861	3	4.47065e-06	7.07525e-08
2	1	0	1	0	46.2853	0.215803	0.215643	0.000332088	3	4.50426e-06	7.16124e-08
2	1	0	1	0	46.3853	0.220803	0.220641	0.000332708	3	4.53774e-06	7.34091e-08
2	1	0	1	0	46.4853	0.225803	0.2257	0.000331235	3	4.5712e-06	7.47597e-08
2	1	0	1	0	46.5853	0.230803	0.230685	0.000329166	3	4.60447e-06	7.59337e-08
2	1	0	1	0	46.6853	0.235803	0.235611	0.00032713	3	4.63749e-06	7.70754e-08
2	1	0	1	0	46.7853	0.240804	0.24065	0.000326363	3	4.67033e-06	7.85393e-08
2	1	0	1	0	46.8853	0.245804	0.245646	0.000324208	3	4.70305e-06	7.96405e-08
2	1	0	1	0	46.9853	0.250804	0.25066	0.00032424	3	4.73571e-06	8.12739e-08
2	1	0	1	0	47.0853	0.255804	0.255673	0.000323913	3	4.76838e-06	8.28158e-08
2	1	0	1	0	47.1853	0.260804	0.260651	0.000324139	3	4.80102e-06	8.44873e-08
2	1	0	1	0	47.2853	0.265805	0.265653	0.000324796	3	4.8337e-06	8.62831e-08
2	1	0	1	0	47.3853	0.270805	0.2707	0.000325153	3	4.86647e-06	8.8019e-08
2	1	0	1	0	47.4853	0.275805	0.275689	0.000327361	3	4.89934e-06	9.02499e-08
2	1	0	1	0	47.5853	0.280805	0.280667	0.00032997	3	4.9324e-06	9.26115e-08
2	1	0	1	0	47.6853	0.285805	0.285657	0.000332174	3	4.96571e-06	9.48878e-08
2	1	0	1	0	47.7853	0.290806	0.290677	0.000333981	3	4.9993e-06	9.70808e-08
2	1	0	1	0	47.8853	0.295806	0.295658	0.000338881	3	5.03325e-06	1.00193e-07
2	0	0	1	0	47.9749	0.299706	0.299551	0.000252902	3	5.06341e-06	7.5757e-08
2	0	0	1	0	48.0749	0.294706	0.294534	0.00021248	3	5.08598e-06	6.25826e-08
2	0	0	1	0	48.1749	0.289706	0.289542	0.000193122	3	5.10596e-06	5.59169e-08
2	0	0	1	0	48.2749	0.284705	0.284514	0.000178265	3	5.12431e-06	5.07188e-08
2	0	0	1	0	48.3749	0.279705	0.279521	0.000167453	3	5.1414e-06	4.68065e-08
2	0	0	1	0	48.4749	0.274705	0.274507	0.000159154	3	5.15746e-06	4.3689e-08
2	0	0	1	0	48.5749	0.269705	0.26953	0.000149185	3	5.17267e-06	4.02097e-08
2	0	0	1	0	48.6749	0.264705	0.264572	0.000144226	3	5.18713e-06	3.81582e-08
2	0	0	1	0	48.7749	0.259704	0.259484	0.000136839	3	5.20095e-06	3.55076e-08
2	0	0	1	0	48.8749	0.254704	0.254534	0.00013199	3	5.2142e-06	3.3596e-08
2	0	0	1	0	48.9749	0.249704	0.24951	0.000126509	3	5.22692e-06	3.15653e-08
2	0	0	1	0	49.0749	0.244704	0.244487	0.00012272	3	5.2392e-06	3.00035e-08
2	0	0	1	0	49.1749	0.239703	0.239504	0.000118191	3	5.25102e-06	2.83073e-08
2	0	0	1	0	49.2749	0.234703	0.234483	0.000112995	3	5.26246e-06	2.64954e-08
2	0	0	1	0	49.3749	0.229703	0.229497	0.000111583	3	5.27353e-06	2.5608e-08
2	0	0	1	0	49.4749	0.224703	0.224487	0.000106028	3	5.28425e-06	2.3802e-08
2	0	0	1	0	49.5749	0.219703	0.219557	0.000102032	3	5.29451e-06	2.24019e-08
2	0	0	1	0	49.6749	0.214702	0.214511	9.99198e-05	3	5.30432e-06	2.14339e-08
2	0	0	1	0	49.7749	0.209702	0.209458	0.000101967	3	5.31429e-06	2.13578e-08
2	0	0	1	0	49.8749	0.204702	0.204514	9.3506e-05	3	5.32389e-06	1.91233e-08
2	0	0	1	0	49.9749	0.199702	0.199512	9.092e-05	3	5.33284e-06	1.81396e-08
2	0	0	1	0	50.0749	0.194702	0.19454	9.01569e-05	3	5.34166e-06	1.75391e-08
2	0	0	1	0	50.1749	0.189701	0.189474	8.73572e-05	3	5.35036e-06	1.65519e-08
2	0	0	1	0	50.2749	0.184701	0.1845	8.44709e-05	3	5.35875e-06	1.55848e-08
2	0	0	1	0	50.3749	0.179701	0.179568	8.25491e-05	3	5.36688e-06	1.48232e-08
2	0	0	1	0	50.4749	0.174701	0.174499	7.98058e-05	3	5.37473e-06	1.39261e-08
2	0	0	1	0	50.5749	0.169701	0.16951	7.72569e-05	3	5.38233e-06	1.30959e-08
2	0	0	1	0	50.6749	0.1647	0.164491	7.45384e-05	3	5.38967e-06	1.22609e-08
2	0	0	1	0	50.7749	0.1597	0.159534	7.09403e-05	3	5.39673e-06	1.13174e-08
2	0	0	1	0	50.8749	0.1547	0.154539	6.7464e-05	3	5.4035e-06	1.04259e-08
2	0	0	1	0	50.9749	0.1497	0.14954	6.4901e-05	3	5.40993e-06	9.70528e-09
2	0	0	0	0	51.0751	0.1447	0.144546	6.18804e-05	3	5.41609e-06	8.94455e-09
2	0	0	0	0	51.1751	0.139699	0.139516	5.58041e-05	3	5.42189e-06	7.78558e-09
2	0	0	0	0	51.2751	0.134699	0.134536	5.42638e-05	3	5.4273e-06	7.30042e-09
2	0	0	0	0	51.3751	0.129699	0.129491	5.04501e-05	3	5.4323e-06	6.53282e-09
2	0	0	0	0	51.4751	0.124699	0.124545	4.45327e-05	3	5.43681e-06	5.54634e-09
2	0	0	0	0	51.5751	0.119699	0.11955	3.79493e-05	3	5.4408e-06	4.53684e-09
2	0	0	0	0	51.6751	0.114698	0.114519	3.20478e-05	3	5.44417e-06	3.67007e-09
2	0	0	0	0	51.7751	0.109698	0.10959	2.39736e-05	3	5.44677e-06	2.62727e-09
2	0	0	0	0	51.8751	0.104698	0.104503	1.5343e-05	3	5.44851e-06	1.60338e-09
2	0	0	0	0	51.9751	0.0996979	0.0995306	7.7199e-07	3	5.44921e-06	7.68366e-11
2	0	0	0	0	52.0751	0.0946977	0.0945279	-1.18153e-05	3	5.44861e-06	-1.11688e-09
2	0	0	0	0	52.1751	0.0896975	0.0895315	-2.86597e-05	3	5.44645e-06	-2.56595e-09
2	0	0	0	0	52.2751	0.0846973	0.0845224	-4.93795e-05	3	5.44238e-06	-4.17368e-09
2	0	0	0	0	52.3751	0.0796971	0.0795038	-7.39854e-05	3	5.43597e-06	-5.88212e-09
2	0	0	0	0	52.4751	0.0746969	0.0745456	-0.000105878	3	5.42672e-06	-7.89272e-09
2	0	0	0	0	52.5751	0.0696967	0.0695545	-0.000142629	3	5.41409e-06	-9.92052e-09
2	0	0	0	0	52.6751	0.0646964	0.0645433	-0.000185212	3	5.39759e-06	-1.19542e-08
2	0	0	0	0	52.7751	0.0596963	0.0595576	-0.000232092	3	5.37663e-06	-1.38228e-08
2	0	0	0	0	52.8751	0.0546961	0.0545898	-0.000282042	3	5.3508e-06	-1.53966e-08
2	0	0	0	0	52.9751	0.0496959	0.0495235	-0.000332499	3	5.31985e-06	-1.64665e-08
2	0	0	0	0	53.0751	0.0446957	0.0445536	-0.000382944	3	5.28378e-06	-1.70615e-08
2	0	0	0	0	53.1751	0.0396955	0.0395329	-0.000428107	3	5.24298e-06	-1.69243e-08
2	0	0	0	0	53.2751	0.0346953	0.0345312	-0.000464961	3	5.19808e-06	-1.60557e-08
2	0	0	0	0	53.3751	0.0296951	0.0295274	-0.000489943	3	5.15007e-06	-1.44668e-08
2	0	0	0	0	53.4751	0.0246949	0.0245745	-0.000505883	3	5.10006e-06	-1.24318e-08
2	0	0	0	0	53.5751	0.0196946	0.0195697	-0.000508047	3	5.04916e-06	-9.94232e-09
2	0	0	0	0	53.6751	0.0146944	0.0145521	-0.000500399	3	4.99846e-06	-7.28186e-09
2	0	0	0	0	53.7751	0.00969425	0.0095144	-0.000488075	3	4.94874e-06	-4.64373e-09
2	0	0	0	0	53.8751	0.00469405	0.00453923	-0.000471352	3	4.90057e-06	-2.13958e-09
2	0	0	0	0	53.9751	-0.000306156	-0.000466674	-0.000449572	3	4.85428e-06	2.09804e-10
2	0	0	0	0	54.0751	-0.00530636	-0.00547788	-0.000429944	3	4.80992e-06	2.35518e-09
2	0	0	0	0	54.1751	-0.0103066	-0.0104615	-0.000410876	3	4.76765e-06	4.29839e-09
2	0	0	0	0	54.2751	-0.0153068	-0.0154855	-0.000392244	3	4.72729e-06	6.07408e-09
2	0	0	0	0	54.3751	-0.020307	-0.0205105	-0.000374702	3	4.68875e-06	7.68531e-09
2	0	0	0	0	54.4751	-0.0253072	-0.0254867	-0.000359334	3	4.65184e-06	9.15824e-09
2	0	0	0	0	54.5751	-0.0303074	-0.0304788	-0.000344619	3	4.6164e-06	1.05036e-08
2	0	0	0	0	54.6751	-0.0353076	-0.0355165	-0.000333518	3	4.58228e-06	1.18454e-08
2	0	0	0	0	54.7751	-0.0403078	-0.0404832	-0.0003225	3	4.54933e-06	1.30558e-08
2	0	0	0	0	54.8751	-0.045308	-0.0454976	-0.000311439	3	4.51746e-06	1.41697e-08
2	0	0	0	0	54.9751	-0.0503082	-0.0504717	-0.000303573	3	4.48653e-06	1.53218e-08
2	0	0	0	0	55.0751	-0.0553084	-0.0554925	-0.000295076	3	4.45641e-06	1.63745e-08
2	0	0	0	0	55.1751	-0.0603086	-0.0604252	-0.000287184	3	4.42707e-06	1.73532e-08
2	0	0	0	0	55.2751	-0.0653088	-0.0654894	-0.000280486	3	4.39844e-06	1.83689e-08
2	0	0	0	0	55.3751	-0.070309	-0.0704943	-0.000275072	3	4.37044e-06	1.9391e-08
2	0	0	0	0	55.4751	-0.0753092	-0.0754557	-0.000269948	3	4.34305e-06	2.03691e-08
2	0	0	0	0	55.5751	-0.0803094	-0.080486	-0.000263718	3	4.31628e-06	2.12256e-08
2	0	0	0	0	55.6751	-0.0853096	-0.0855014	-0.000258037	3	4.29002e-06	2.20625e-08
2	0	0	0	0	55.7751	-0.0903098	-0.0905116	-0.000254495	3	4.26412e-06	2.30348e-08
2	0	0	0	0	55.8751	-0.09531	-0.0954698	-0.000251747	3	4.23868e-06	2.40342e-08
2	0	0	1	0	55.9753	-0.10031	-0.100418	-0.000245912	3	4.2135e-06	2.46941e-08
2	0	0	1	0	56.0753	-0.10531	-0.1055	-0.000243847	3	4.18873e-06	2.57258e-08
2	0	0	1	0	56.1753	-0.110311	-0.110466	-0.000240002	3	4.16434e-06	2.65121e-08
2	0	0	1	0	56.2753	-0.115311	-0.115509	-0.000237942	3	4.14017e-06	2.74845e-08
2	0	0	1	0	56.3753	-0.120311	-0.120423	-0.000235642	3	4.11623e-06	2.83768e-08
2	0	0	1	0	56.4753	-0.125311	-0.125487	-0.000233579	3	4.09257e-06	2.93112e-08
2	0	0	1	0	56.5753	-0.130311	-0.130443	-0.000230158	3	4.06924e-06	3.00225e-08
2	0	0	1	0	56.6753	-0.135312	-0.135467	-0.000227745	3	4.04616e-06	3.0852e-08
2	0	0	1	0	56.7753	-0.140312	-0.140426	-0.000226305	3	4.02331e-06	3.17793e-08
2	0	0	1	0	56.8753	-0.145312	-0.145471	-0.0002242	3	4.00064e-06	3.26145e-08
2	0	0	1	0	56.9753	-0.150312	-0.150439	-0.000222405	3	3.97815e-06	3.34585e-08
2	0	0	1	0	57.0753	-0.155312	-0.155487	-0.000220552	3	3.95581e-06	3.42929e-08
2	0	0	1	0	57.1753	-0.160313	-0.160467	-0.000218505	3	3.93364e-06	3.50628e-08
2	0	0	1	0	57.2753	-0.165313	-0.165462	-0.000216562	3	3.91161e-06	3.58328e-08
2	0	0	1	0	57.3753	-0.170313	-0.170465	-0.000216855	3	3.88964e-06	3.69662e-08
2	0	0	1	0	57.4753	-0.175313	-0.175473	-0.000216525	3	3.86777e-06	3.79943e-08
2	0	0	1	0	57.5753	-0.180313	-0.180461	-0.000216839	3	3.84593e-06	3.9131e-08
2	0	0	1	0	57.6753	-0.185314	-0.185486	-0.000215444	3	3.82413e-06	3.99618e-08
2	0	0	1	0	57.7753	-0.190314	-0.190485	-0.000214124	3	3.80233e-06	4.07873e-08
2	0	0	1	0	57.8753	-0.195314	-0.195541	-0.000215354	3	3.78049e-06	4.21105e-08
2	1	0	1	1	57.9692	-0.199989	-0.200196	-0.000204133	3	3.75997e-06	4.08668e-08
2	1	0	0	1	58.0647	-0.195214	-0.195392	-8.4227e-05	3	3.75087e-06	1.64573e-08
2	1	0	0	1	58.1647	-0.190214	-0.190339	-7.20583e-05	3	3.74345e-06	1.37155e-08
2	1	0	0	1	58.2647	-0.185214	-0.185357	-6.09406e-05	3	3.73724e-06	1.12957e-08
2	1	0	0	1	58.3647	-0.180213	-0.180358	-5.22482e-05	3	3.73193e-06	9.42338e-09
2	1	0	0	1	58.4647	-0.175213	-0.175309	-4.59139e-05	3	3.72736e-06	8.0491e-09
2	1	0	0	1	58.5647	-0.170213	-0.17032	-3.96573e-05	3	3.72341e-06	6.75442e-09
2	1	0	0	1	58.6647	-0.165213	-0.165351	-3.56069e-05	3	3.72002e-06	5.88765e-09
2	1	0	0	1	58.7647	-0.160213	-0.160361	-3.05427e-05	3	3.71708e-06	4.89786e-09
2	1	0	0	1	58.8647	-0.155212	-0.155259	-2.6374e-05	3	3.71457e-06	4.09479e-09
2	1	0	0	1	58.9647	-0.150212	-0.15034	-2.34736e-05	3	3.71249e-06	3.52901e-09
2	1	0	0	1	59.0647	-0.145212	-0.145277	-2.06208e-05	3	3.71074e-06	2.99572e-09
2	1	0	0	1	59.1647	-0.140212	-0.140283	-1.51379e-05	3	3.70932e-06	2.1236e-09
2	1	0	0	1	59.2647	-0.135212	-0.135317	-1.32161e-05	3	3.7082e-06	1.78836e-09
2	1	0	0	1	59.3647	-0.130211	-0.130305	-1.09551e-05	3	3.70738e-06	1.42751e-09
2	1	0	0	1	59.4647	-0.125211	-0.125327	-7.46825e-06	3	3.70683e-06	9.35974e-10
2	1	0	0	1	59.5647	-0.120211	-0.120327	-4.76743e-06	3	3.70655e-06	5.73648e-10
2	1	0	0	1	59.6647	-0.115211	-0.115279	-2.57533e-06	3	3.70651e-06	2.96882e-10
2	1	0	0	1	59.7647	-0.110211	-0.110352	-1.41481e-06	3	3.70671e-06	1.56127e-10
2	1	0	0	1	59.8647	-0.10521	-0.10531	2.43417e-06	3	3.70711e-06	-2.56342e-10
2	1	0	0	1	59.9647	-0.10021	-0.100361	2.89343e-06	3	3.70773e-06	-2.90388e-10
2	1	0	1	1	60.0649	-0.09521	-0.0953478	5.76736e-06	3	3.70854e-06	-5.49905e-10
2	1	0	1	1	60.1649	-0.0902098	-0.0903515	7.6521e-06	3	3.70954e-06	-6.91379e-10
2	1	0	1	1	60.2649	-0.0852096	-0.0853254	9.21713e-06	3	3.71072e-06	-7.86455e-10
2	1	0	1	1	60.3649	-0.0802094	-0.0803386	1.1139e-05	3	3.71206e-06	-8.94889e-10
2	1	0	1	1	60.4649	-0.0752092	-0.0753306	1.2008e-05	3	3.71358e-06	-9.04572e-10
2	1	0	1	1	60.5649	-0.070209	-0.0703353	1.36031e-05	3	3.71524e-06	-9.56777e-10
2	1	0	1	1	60.6649	-0.0652088	-0.0653686	1.59012e-05	3	3.71705e-06	-1.03944e-09
2	1	0	0	1	60.6718	-0.0648338	-0.065094	2.69376e-05	3	3.7172e-06	-1.75348e-09