File: AutoAnalysis Examples/EC/C003A-0ppb-A_C01.mpt
EC-Lab ASCII FILE
Nb header lines : 59

Cyclic Voltammetry

Run on channel : 1 (SN 22398)
User :
CE vs. WE compliance from -10 V to 10 V
Electrode connection : standard
Ewe ctrl range : min = -1.00 V, max = 1.00 V
Safety Limits :
	Ewe min = -2.00 V
	Ewe max = 2.00 V
	|I| = 50.000 mA
	for t > 10 ms
Acquisition started on : 11/21/2018 09:56:40
Technique started on : 11/21/2018 09:56:40
Saved on :
	File : C003A-0ppb-A_C01.mpr
	Directory : \\ECCOMPUTER\Users\Lab User\Google Drive\Electrochemical Data\EC-Lab\Data\FREDsense\Tim\2018.11.21 - EC comparison to High Throughput\
	Host : 172.16.1.30
Device : SP-50 (SN 0301030103010301)
Address : USB
EC-Lab for windows v11.02 (software)
Internet server v11.02 (firmware)
Command interpretor v11.02 (firmware)
Electrode material : Au/Pd
Initial state :
Electrolyte : NaCl (0.2M)
Comments : Fe(CN)63-/Fe(CN)64- 5.10-3 M
Reference electrode : SCE Saturated Calomel Electrode (0.241 V)
Electrode surface area : 0.001 cm²
Characteristic mass : 0.001 g
Equivalent Weight : 0.000 g/eq.
Density : 0.000 g/cm3
Cycle Definition : Charge/Discharge alternance
Ei (V)              -0.100
vs.                 Ref
dE/dt               50.000
dE/dt unit          mV/s
E1 (V)              0.300
vs.                 Ref
Step percent        50
N                   10
E range min (V)     -1.000
E range max (V)     1.000
I Range             Auto
I Range min         Unset
I Range max         Unset
I Range init        Unset
Bandwidth           5
E2 (V)              -0.200
vs.                 Ref
nc cycles           2
Reverse Scan        1
Ef (V)              0.000
vs.                 Eoc

mode	ox/red	error	control changes	counter inc.	time/s	control/V	Ewe/V	<I>/mA	cycle number	(Q-Qo)/C	P/W
2	1	0	0	0	0.000000000000000E+000	-0.0985196	-0.0988537	-9.21303e-05	1	0.0000000E+000	9.10742e-09
2	1	0	0	0	0.1112	-0.0929695	-0.0931723	8.34076e-06	1	1.43612e-09	-7.77128e-10
2	1	0	1	0	0.2267	-0.0871944	-0.08738	3.28674e-05	1	5.44208e-09	-2.87195e-09
2	1	0	1	0	0.3267	-0.0821943	-0.0823561	3.8156e-05	1	9.33401e-09	-3.14238e-09
2	1	0	1	0	0.4267	-0.0771941	-0.0773788	4.02774e-05	1	1.3591e-08	-3.11662e-09
2	1	0	1	0	0.5267	-0.072194	-0.0723931	4.30383e-05	1	1.81039e-08	-3.11567e-09
2	1	0	1	0	0.6267	-0.0671939	-0.0673564	4.5559e-05	1	2.28284e-08	-3.06869e-09
2	1	0	1	0	0.7267	-0.0621937	-0.0623526	4.76521e-05	1	2.77614e-08	-2.97123e-09
2	1	0	1	0	0.8267	-0.0571936	-0.0573287	4.70003e-05	1	3.28103e-08	-2.69447e-09
2	1	0	1	0	0.9267	-0.0521935	-0.0523493	5.12944e-05	1	3.80153e-08	-2.68523e-09
2	1	0	1	0	1.0267	-0.0471933	-0.0473635	5.26334e-05	1	4.33821e-08	-2.4929e-09
2	1	0	1	0	1.1267	-0.0421932	-0.0423947	5.24037e-05	1	4.88941e-08	-2.22164e-09
2	1	0	1	0	1.2267	-0.0371931	-0.0373888	5.38204e-05	1	5.46083e-08	-2.01228e-09
2	1	0	1	0	1.3267	-0.032193	-0.0323585	5.76429e-05	1	6.05254e-08	-1.86524e-09
2	1	0	1	0	1.4267	-0.0271928	-0.0273865	6.02342e-05	1	6.66741e-08	-1.6496e-09
2	1	0	1	0	1.5267	-0.0221927	-0.0223424	6.34826e-05	1	7.30816e-08	-1.41836e-09
2	1	0	1	0	1.6267	-0.0171926	-0.0173832	6.56376e-05	1	7.98484e-08	-1.14099e-09
2	1	0	1	0	1.7267	-0.0121925	-0.0123783	7.10321e-05	1	8.69984e-08	-8.79259e-10
2	1	0	1	0	1.8267	-0.00719232	-0.00733956	7.64674e-05	1	9.46649e-08	-5.61236e-10
2	1	0	1	0	1.9267	-0.0021922	-0.00238665	8.46299e-05	1	1.02988e-07	-2.01982e-10
2	1	0	1	0	2.0267	0.00280793	0.00262244	9.37074e-05	1	1.12255e-07	2.45742e-10
2	1	0	1	0	2.1267	0.00780806	0.00763789	0.000107475	1	1.22601e-07	8.20879e-10
2	1	0	1	0	2.2267	0.0128082	0.0126427	0.000122825	1	1.34345e-07	1.55284e-09
2	1	0	1	0	2.3267	0.0178083	0.0176751	0.000143004	1	1.47875e-07	2.52762e-09
2	1	0	1	0	2.4267	0.0228084	0.0226482	0.000167253	1	1.63617e-07	3.78798e-09
2	1	0	1	0	2.5267	0.0278086	0.0277113	0.000199847	1	1.82278e-07	5.53802e-09
2	1	0	1	0	2.6267	0.0328087	0.0326759	0.000234507	1	2.04362e-07	7.66272e-09
2	1	0	1	0	2.7267	0.0378088	0.0376468	0.000272292	1	2.29906e-07	1.02509e-08
2	1	0	1	0	2.8267	0.0428089	0.0426527	0.000315984	1	2.59514e-07	1.34776e-08
2	1	0	1	0	2.9267	0.0478091	0.0476841	0.000362173	1	2.93632e-07	1.72699e-08
2	1	0	1	0	3.0267	0.0528092	0.0526911	0.000409051	1	3.32552e-07	2.15534e-08
2	1	0	1	0	3.1267	0.0578093	0.0576864	0.000454817	1	3.76155e-07	2.62367e-08
2	1	0	1	0	3.2267	0.0628094	0.0626711	0.000498035	1	4.24172e-07	3.12124e-08
2	1	0	1	0	3.3267	0.0678096	0.0676589	0.000534017	1	4.76197e-07	3.6131e-08
2	1	0	1	0	3.4267	0.0728097	0.0726818	0.000562693	1	5.31436e-07	4.08975e-08
2	1	0	1	0	3.5267	0.0778098	0.0777142	0.000581874	1	5.8913e-07	4.52199e-08
2	1	0	1	0	3.6267	0.0828099	0.0826851	0.000593914	1	6.48432e-07	4.91078e-08
2	1	0	1	0	3.7267	0.0878101	0.087672	0.000600246	1	7.08529e-07	5.26248e-08
2	1	0	1	0	3.8267	0.0928102	0.0926397	0.000597688	1	7.68734e-07	5.53697e-08
2	1	0	1	0	3.9267	0.0978103	0.0977124	0.000590335	1	8.28444e-07	5.7683e-08
2	1	0	1	0	4.0267	0.10281	0.10267	0.000580406	1	8.8732e-07	5.959e-08
2	1	0	1	0	4.1267	0.107811	0.107675	0.000569449	1	9.45075e-07	6.13157e-08
2	1	0	1	0	4.2267	0.112811	0.112695	0.000555201	1	1.00156e-06	6.25685e-08
2	1	0	1	0	4.3267	0.117811	0.117671	0.000539842	1	1.05669e-06	6.3524e-08
2	1	0	1	0	4.4267	0.122811	0.122639	0.000527787	1	1.11042e-06	6.47273e-08
2	1	0	1	0	4.5267	0.127811	0.127655	0.000514738	1	1.16283e-06	6.57087e-08
2	1	0	1	0	4.6267	0.132811	0.132657	0.000505018	1	1.21404e-06	6.69943e-08
2	1	0	1	0	4.7267	0.137811	0.137663	0.00049192	1	1.26419e-06	6.77193e-08
2	1	0	1	0	4.8267	0.142811	0.142635	0.000482336	1	1.31324e-06	6.8798e-08
2	1	0	1	0	4.9267	0.147812	0.147643	0.000473551	1	1.36131e-06	6.99166e-08
2	1	0	1	0	5.0267	0.152812	0.152654	0.000468447	1	1.40854e-06	7.15104e-08
2	1	0	1	0	5.1267	0.157812	0.157705	0.000457571	1	1.45501e-06	7.21611e-08
2	1	0	1	0	5.2267	0.162812	0.162673	0.000451053	1	1.50076e-06	7.33739e-08
2	1	0	1	0	5.3267	0.167812	0.167667	0.00044543	1	1.54592e-06	7.46839e-08
2	1	0	1	0	5.4267	0.172812	0.1727	0.000440658	1	1.59053e-06	7.61017e-08
2	1	0	1	0	5.5267	0.177812	0.177661	0.000437149	1	1.63465e-06	7.76643e-08
2	1	0	1	0	5.6267	0.182812	0.182675	0.00043297	1	1.67836e-06	7.90928e-08
2	1	0	1	0	5.7267	0.187813	0.187689	0.00042738	1	1.72171e-06	8.02146e-08
2	1	0	1	0	5.8267	0.192813	0.192692	0.000426661	1	1.76476e-06	8.22141e-08
2	1	0	1	0	5.9267	0.197813	0.197661	0.000423734	1	1.80754e-06	8.37556e-08
2	1	0	1	0	6.0267	0.202813	0.202679	0.000420565	1	1.8501e-06	8.52394e-08
2	1	0	1	0	6.1267	0.207813	0.207715	0.000419145	1	1.89251e-06	8.70627e-08
2	1	0	1	0	6.2267	0.212813	0.212699	0.000418846	1	1.93478e-06	8.90881e-08
2	1	0	1	0	6.3267	0.217813	0.217674	0.000417029	1	1.97696e-06	9.07762e-08
2	1	0	1	0	6.4267	0.222813	0.222663	0.000417564	1	2.01907e-06	9.29759e-08
2	1	0	1	0	6.5267	0.227814	0.227655	0.000417629	1	2.06115e-06	9.50754e-08
2	1	0	1	0	6.6267	0.232814	0.232694	0.00041783	1	2.10324e-06	9.72266e-08
2	1	0	1	0	6.7267	0.237814	0.237659	0.000418219	1	2.14536e-06	9.93937e-08
2	1	0	1	0	6.8267	0.242814	0.24266	0.000418737	1	2.18753e-06	1.01611e-07
2	1	0	1	0	6.9267	0.247814	0.247652	0.000420362	1	2.2298e-06	1.04103e-07
2	1	0	1	0	7.0267	0.252814	0.252647	0.000420512	1	2.27217e-06	1.06241e-07
2	1	0	1	0	7.1267	0.257814	0.257643	0.000422971	1	2.31472e-06	1.08975e-07
2	1	0	1	0	7.2267	0.262814	0.262677	0.000424681	1	2.35742e-06	1.11554e-07
2	1	0	1	0	7.3267	0.267815	0.267675	0.000427549	1	2.40031e-06	1.14444e-07
2	1	0	1	0	7.4267	0.272815	0.272703	0.000430437	1	2.4434e-06	1.17381e-07
2	1	0	1	0	7.5267	0.277815	0.27767	0.000430706	1	2.48671e-06	1.19594e-07
2	1	0	1	0	7.6267	0.282815	0.282687	0.000432896	1	2.5303e-06	1.22374e-07
2	1	0	1	0	7.7267	0.287815	0.287722	0.000437036	1	2.57413e-06	1.25745e-07
2	1	0	0	0	7.8269	0.292816	0.292674	0.000438993	1	2.61834e-06	1.28482e-07
2	1	0	0	0	7.9269	0.297815	0.297655	0.000442636	1	2.66277e-06	1.31753e-07
2	0	0	1	0	8.0163	0.297715	0.297546	0.000330442	1	2.69799e-06	9.83215e-08
2	0	0	1	0	8.1163	0.292719	0.29258	0.000287831	1	2.72852e-06	8.42133e-08
2	0	0	0	0	8.2165	0.287715	0.287556	0.000260759	1	2.75584e-06	7.49829e-08
2	0	0	0	0	8.3165	0.282715	0.28254	0.000241975	1	2.78075e-06	6.83676e-08
2	0	0	0	0	8.4165	0.277715	0.277574	0.000224855	1	2.80381e-06	6.2414e-08
2	0	0	0	0	8.5165	0.272715	0.272519	0.000209889	1	2.82539e-06	5.71987e-08
2	0	0	0	0	8.6165	0.267715	0.267544	0.000199318	1	2.84572e-06	5.33265e-08
2	0	0	0	0	8.7165	0.262714	0.262555	0.000189974	1	2.86498e-06	4.98787e-08
2	0	0	0	0	8.8165	0.257714	0.257564	0.000181896	1	2.88332e-06	4.685e-08
2	0	0	0	0	8.9165	0.252714	0.252552	0.000174204	1	2.9008e-06	4.39955e-08
2	0	0	0	0	9.0165	0.247714	0.247551	0.000167004	1	2.9176e-06	4.13421e-08
2	0	0	0	0	9.1165	0.242714	0.242539	0.000160004	1	2.93375e-06	3.88072e-08
2	0	0	0	0	9.2165	0.237714	0.237567	0.000154042	1	2.94931e-06	3.65954e-08
2	0	0	0	0	9.3165	0.232714	0.232525	0.000149596	1	2.96434e-06	3.47849e-08
2	0	0	0	0	9.4165	0.227714	0.22755	0.000144823	1	2.97886e-06	3.29546e-08
2	0	0	0	0	9.5165	0.222713	0.222521	0.000140308	1	2.99292e-06	3.12216e-08
2	0	0	0	0	9.6165	0.217713	0.217549	0.00013641	1	3.00656e-06	2.96758e-08
2	0	0	0	0	9.7165	0.212713	0.212566	0.000132971	1	3.01978e-06	2.82651e-08
2	0	0	0	0	9.8165	0.207713	0.207518	0.000129535	1	3.03262e-06	2.68809e-08
2	0	0	0	0	9.9165	0.202713	0.202505	0.000126059	1	3.04508e-06	2.55275e-08
2	0	0	0	0	10.0165	0.197713	0.197503	0.000120977	1	3.05718e-06	2.38933e-08
2	0	0	0	0	10.1165	0.192713	0.192565	0.000117322	1	3.06895e-06	2.25922e-08
2	0	0	0	0	10.2165	0.187713	0.187529	0.000115312	1	3.08037e-06	2.16244e-08
2	0	0	0	0	10.3165	0.182712	0.182531	0.000110946	1	3.09146e-06	2.0251e-08
2	0	0	0	0	10.4165	0.177712	0.177532	0.000109139	1	3.10223e-06	1.93756e-08
2	0	0	0	0	10.5165	0.172712	0.172497	0.000105772	1	3.11269e-06	1.82453e-08
2	0	0	0	0	10.6165	0.167712	0.167524	0.00010235	1	3.12283e-06	1.71461e-08
2	0	0	0	0	10.7165	0.162712	0.162564	9.83848e-05	1	3.13263e-06	1.59939e-08
2	0	0	0	0	10.8165	0.157712	0.157524	9.54455e-05	1	3.1421e-06	1.50349e-08
2	0	0	0	0	10.9165	0.152712	0.152541	9.06232e-05	1	3.15122e-06	1.38238e-08
2	0	0	0	0	11.0165	0.147712	0.147531	8.79277e-05	1	3.15998e-06	1.29721e-08
2	0	0	0	0	11.1165	0.142711	0.142548	8.45804e-05	1	3.1684e-06	1.20568e-08
2	0	0	0	0	11.2165	0.137711	0.137506	8.03252e-05	1	3.1764e-06	1.10452e-08
2	0	0	0	0	11.3165	0.132711	0.132522	7.58173e-05	1	3.18402e-06	1.00474e-08
2	0	0	0	0	11.4165	0.127711	0.127515	7.1147e-05	1	3.19117e-06	9.07228e-09
2	0	0	0	0	11.5165	0.122711	0.122556	6.75029e-05	1	3.19783e-06	8.27291e-09
2	0	0	0	0	11.6165	0.117711	0.117526	6.04921e-05	1	3.20397e-06	7.1094e-09
2	0	0	0	0	11.7165	0.112711	0.112555	5.26793e-05	1	3.20942e-06	5.92933e-09
2	0	0	0	0	11.8165	0.107711	0.107542	4.54936e-05	1	3.2142e-06	4.89247e-09
2	0	0	0	0	11.9165	0.10271	0.102525	3.77691e-05	1	3.21816e-06	3.8723e-09
2	0	0	0	0	12.0165	0.0977103	0.0975544	2.78756e-05	1	3.22119e-06	2.71939e-09
2	0	0	0	0	12.1165	0.0927102	0.0925167	1.56468e-05	1	3.22311e-06	1.44759e-09
2	0	0	0	0	12.2165	0.0877101	0.0875596	1.27718e-06	1	3.22371e-06	1.11829e-10
2	0	0	0	0	12.3165	0.0827099	0.0825293	-1.68054e-05	1	3.22275e-06	-1.38694e-09
2	0	0	0	0	12.4165	0.0777098	0.0775192	-3.56864e-05	1	3.21993e-06	-2.76638e-09
2	0	0	0	0	12.5165	0.0727097	0.0725429	-5.96176e-05	1	3.21488e-06	-4.32483e-09
2	0	0	0	0	12.6165	0.0677096	0.0675582	-8.78923e-05	1	3.20723e-06	-5.93785e-09
2	0	0	0	0	12.7165	0.0627094	0.0625279	-0.000121584	1	3.19654e-06	-7.60243e-09
2	0	0	0	0	12.8165	0.0577093	0.0575496	-0.000158345	1	3.18232e-06	-9.11269e-09
2	0	0	0	0	12.9165	0.0527092	0.052567	-0.000200689	1	3.16422e-06	-1.05496e-08
2	0	0	0	0	13.0165	0.0477091	0.0474827	-0.000243254	1	3.1418e-06	-1.15503e-08
2	0	0	0	0	13.1165	0.0427089	0.0425287	-0.000288293	1	3.11492e-06	-1.22607e-08
2	0	0	0	0	13.2165	0.0377088	0.0375387	-0.000332655	1	3.0836e-06	-1.24874e-08
2	0	0	0	0	13.3165	0.0327087	0.0325603	-0.00037248	1	3.04803e-06	-1.21281e-08
2	0	0	0	0	13.4165	0.0277086	0.027565	-0.00040679	1	3.00874e-06	-1.12132e-08
2	0	0	0	0	13.5165	0.0227084	0.0225316	-0.000432931	1	2.96646e-06	-9.75462e-09
2	0	0	0	0	13.6165	0.0177083	0.0175288	-0.00044927	1	2.9221e-06	-7.87519e-09
2	0	0	0	0	13.7165	0.0127082	0.012595	-0.000455566	1	2.87659e-06	-5.73786e-09
2	0	0	0	0	13.8165	0.00770806	0.00753293	-0.00045466	1	2.83082e-06	-3.42492e-09
2	0	0	0	0	13.9165	0.00270793	0.00253657	-0.000445951	1	2.78557e-06	-1.13119e-09
2	0	0	0	0	14.0165	-0.0022922	-0.00247464	-0.000431933	1	2.7414e-06	1.06888e-09
2	0	0	0	0	14.1165	-0.00729233	-0.00750281	-0.000415838	1	2.69875e-06	3.11995e-09
2	0	0	0	0	14.2165	-0.0122925	-0.0124706	-0.000398933	1	2.65785e-06	4.97492e-09
2	0	0	0	0	14.3165	-0.0172926	-0.0175358	-0.00037832	1	2.61875e-06	6.63415e-09
2	0	0	0	0	14.4165	-0.0222927	-0.0225152	-0.00036239	1	2.58146e-06	8.1593e-09
2	0	0	0	0	14.5165	-0.0272928	-0.0275264	-0.000345514	1	2.54587e-06	9.51078e-09
2	0	0	0	0	14.6165	-0.032293	-0.0325567	-0.000329622	1	2.51187e-06	1.07314e-08
2	0	0	0	0	14.7165	-0.0372931	-0.0375107	-0.00031584	1	2.47933e-06	1.18474e-08
2	0	0	0	0	14.8165	-0.0422932	-0.0425081	-0.000303497	1	2.4481e-06	1.29011e-08
2	0	0	0	0	14.9165	-0.0472933	-0.047496	-0.000292697	1	2.41809e-06	1.39019e-08
2	0	0	0	0	15.0165	-0.0522935	-0.0525019	-0.000285107	1	2.38912e-06	1.49687e-08
2	0	0	0	0	15.1165	-0.0572936	-0.0575163	-0.000272507	1	2.36112e-06	1.56736e-08
2	0	0	0	0	15.2165	-0.0622937	-0.0624904	-0.0002645	1	2.33403e-06	1.65287e-08
2	0	0	0	0	15.3165	-0.0672939	-0.0675377	-0.000256963	1	2.3077e-06	1.73547e-08
2	0	0	0	0	15.4165	-0.072294	-0.0725266	-0.000250779	1	2.28209e-06	1.81881e-08
2	0	0	0	0	15.5165	-0.0772941	-0.0774848	-0.00024413	1	2.25712e-06	1.89164e-08
2	0	0	0	0	15.6165	-0.0822943	-0.0824653	-0.000237699	1	2.23273e-06	1.96019e-08
2	0	0	0	0	15.7165	-0.0872944	-0.0875221	-0.000232413	1	2.20888e-06	2.03413e-08
2	0	0	0	0	15.8165	-0.0922945	-0.0925121	-0.000229253	1	2.18552e-06	2.12087e-08
2	0	0	0	0	15.9165	-0.0972946	-0.0975169	-0.000224682	1	2.16261e-06	2.19103e-08
2	0	0	1	0	16.0167	-0.102295	-0.102466	-0.000220731	1	2.14007e-06	2.26173e-08
2	0	0	1	0	16.1167	-0.107295	-0.107439	-0.000215914	1	2.11796e-06	2.31975e-08
2	0	0	1	0	16.2167	-0.112295	-0.112508	-0.000213753	1	2.09618e-06	2.4049e-08
2	0	0	1	0	16.3167	-0.117295	-0.117483	-0.000210026	1	2.07476e-06	2.46746e-08
2	0	0	1	0	16.4167	-0.122295	-0.122488	-0.000207581	1	2.05361e-06	2.54263e-08
2	0	0	1	0	16.5167	-0.127295	-0.127483	-0.000205478	1	2.03273e-06	2.6195e-08
2	0	0	1	0	16.6167	-0.132296	-0.132517	-0.000202272	1	2.0121e-06	2.68044e-08
2	0	0	1	0	16.7167	-0.137296	-0.137482	-0.000200728	1	1.9917e-06	2.75964e-08
2	0	0	1	0	16.8167	-0.142296	-0.142463	-0.000198808	1	1.97151e-06	2.83228e-08
2	0	0	1	0	16.9167	-0.147296	-0.147466	-0.000196851	1	1.95152e-06	2.90287e-08
2	0	0	1	0	17.0167	-0.152296	-0.152485	-0.000194503	1	1.93172e-06	2.96589e-08
2	0	0	1	0	17.1167	-0.157296	-0.157488	-0.000193408	1	1.91204e-06	3.04595e-08
2	0	0	1	0	17.2167	-0.162296	-0.162538	-0.000191235	1	1.89256e-06	3.10829e-08
2	0	0	1	0	17.3167	-0.167296	-0.167465	-0.000192316	1	1.87317e-06	3.22063e-08
2	0	0	1	0	17.4167	-0.172297	-0.172496	-0.000190394	1	1.85388e-06	3.28424e-08
2	0	0	1	0	17.5167	-0.177297	-0.177479	-0.000188695	1	1.83468e-06	3.34894e-08
2	0	0	1	0	17.6167	-0.182297	-0.182515	-0.000189979	1	1.81553e-06	3.4674e-08
2	0	0	1	0	17.7167	-0.187297	-0.187497	-0.000188344	1	1.79644e-06	3.53139e-08
2	0	0	1	0	17.8167	-0.192297	-0.192474	-0.000189485	1	1.77736e-06	3.6471e-08
2	0	0	1	0	17.9167	-0.197297	-0.197409	-0.000187697	1	1.75828e-06	3.70532e-08
2	1	0	0	1	17.9961	-0.198747	-0.19894	-9.39492e-05	1	1.7455e-06	1.86903e-08
2	1	0	0	1	18.0961	-0.193747	-0.193944	-6.95783e-05	1	1.73781e-06	1.34943e-08
2	1	0	0	1	18.1961	-0.188747	-0.188924	-5.91159e-05	1	1.73172e-06	1.11684e-08
2	1	0	0	1	18.2961	-0.183747	-0.1839	-5.13614e-05	1	1.72665e-06	9.44537e-09
2	1	0	0	1	18.3961	-0.178747	-0.178919	-4.33243e-05	1	1.72234e-06	7.75153e-09
2	1	0	0	1	18.4961	-0.173747	-0.173916	-3.68028e-05	1	1.71866e-06	6.40059e-09
2	1	0	0	1	18.5961	-0.168746	-0.168936	-3.15866e-05	1	1.71554e-06	5.33613e-09
2	1	0	0	1	18.6961	-0.163746	-0.163936	-2.84106e-05	1	1.71292e-06	4.65752e-09
2	1	0	0	1	18.7961	-0.158746	-0.158926	-2.40494e-05	1	1.7107e-06	3.82207e-09
2	1	0	0	1	18.8961	-0.153746	-0.153904	-2.25833e-05	1	1.7088e-06	3.47566e-09
2	1	0	0	1	18.9961	-0.148746	-0.148911	-1.73954e-05	1	1.70724e-06	2.59036e-09
2	1	0	0	1	19.0961	-0.143746	-0.143904	-1.33062e-05	1	1.70602e-06	1.91481e-09
2	1	0	0	1	19.1961	-0.138746	-0.138912	-1.11883e-05	1	1.7051e-06	1.55418e-09
2	1	0	0	1	19.2961	-0.133746	-0.13395	-8.65173e-06	1	1.70443e-06	1.1589e-09
2	1	0	0	1	19.3961	-0.128745	-0.128916	-5.10304e-06	1	1.70401e-06	6.57862e-10
2	1	0	0	1	19.4961	-0.123745	-0.123914	-3.96902e-06	1	1.70383e-06	4.91817e-10
2	1	0	0	1	19.5961	-0.118745	-0.118939	-2.37926e-06	1	1.70386e-06	2.82987e-10
2	1	0	0	1	19.6961	-0.113745	-0.113868	6.11248e-07	1	1.70411e-06	-6.96018e-11
2	1	0	0	1	19.7961	-0.108745	-0.108914	2.44477e-06	1	1.70456e-06	-2.6627e-10
2	1	0	0	1	19.8961	-0.103745	-0.103879	3.95857e-06	1	1.70519e-06	-4.11211e-10
2	1	0	0	1	19.9961	-0.0987447	-0.0989184	5.78149e-06	2	1.70604e-06	-5.71896e-10
2	1	0	1	1	20.0963	-0.0937445	-0.0939327	6.47568e-06	2	1.70696e-06	-6.08278e-10
2	1	0	1	1	20.1963	-0.0887444	-0.0888981	9.18357e-06	2	1.70808e-06	-8.16402e-10
2	1	0	1	1	20.2963	-0.0837443	-0.0838763	1.00473e-05	2	1.70942e-06	-8.42733e-10
2	1	0	1	1	20.3963	-0.0787442	-0.0788916	1.11125e-05	2	1.71089e-06	-8.76681e-10
2	1	0	1	1	20.4963	-0.073744	-0.0739546	1.39299e-05	2	1.71246e-06	-1.03018e-09
2	1	0	1	1	20.5963	-0.0687439	-0.0688957	1.3619e-05	2	1.71419e-06	-9.3829e-10
2	1	0	1	1	20.6963	-0.0637438	-0.0639428	1.5751e-05	2	1.71605e-06	-1.00716e-09
2	1	0	1	1	20.7963	-0.0587436	-0.0588786	1.64523e-05	2	1.71805e-06	-9.68687e-10
2	1	0	1	1	20.8963	-0.0537435	-0.053896	1.96318e-05	2	1.72021e-06	-1.05808e-09
2	1	0	1	1	20.9963	-0.0487434	-0.0489272	1.97872e-05	2	1.72257e-06	-9.68134e-10
2	1	0	1	1	21.0963	-0.0437433	-0.0438683	2.16066e-05	2	1.72507e-06	-9.47845e-10
2	1	0	1	1	21.1963	-0.0387431	-0.038926	2.35232e-05	2	1.72776e-06	-9.15662e-10
2	1	0	1	1	21.2963	-0.033743	-0.0339063	2.72326e-05	2	1.73065e-06	-9.23356e-10
2	1	0	1	1	21.3963	-0.0287429	-0.0289417	2.89778e-05	2	1.73378e-06	-8.38667e-10
2	1	0	1	1	21.4963	-0.0237427	-0.0239199	3.17422e-05	2	1.73719e-06	-7.59271e-10
2	1	0	1	1	21.5963	-0.0187426	-0.0189257	3.55064e-05	2	1.74093e-06	-6.71982e-10
2	1	0	1	1	21.6963	-0.0137425	-0.0139272	4.21586e-05	2	1.74509e-06	-5.87151e-10
2	1	0	1	1	21.7963	-0.00874236	-0.00892762	4.76857e-05	2	1.74974e-06	-4.2572e-10
2	1	0	1	1	21.8963	-0.00374223	-0.00394716	5.38928e-05	2	1.75503e-06	-2.12723e-10
2	1	0	1	1	21.9963	0.00125789	0.00114038	6.27478e-05	2	1.76115e-06	7.15565e-11
2	1	0	1	1	22.0963	0.00625802	0.00611979	7.27438e-05	2	1.76821e-06	4.45177e-10
2	1	0	1	1	22.1963	0.0112581	0.0111289	8.61914e-05	2	1.77647e-06	9.59213e-10
2	1	0	1	1	22.2963	0.0162583	0.0161157	0.000103	2	1.78627e-06	1.65992e-09
2	1	0	1	1	22.3963	0.0212584	0.0211068	0.000124162	2	1.79791e-06	2.62065e-09
2	1	0	1	1	22.4963	0.0262585	0.0261593	0.000150144	2	1.81188e-06	3.92766e-09
2	1	0	1	1	22.5963	0.0312586	0.0311112	0.000179499	2	1.82861e-06	5.58444e-09
2	1	0	1	1	22.6963	0.0362588	0.0361266	0.000213324	2	1.84855e-06	7.70668e-09
2	1	0	1	1	22.7963	0.0412589	0.0410721	0.000255534	2	1.87222e-06	1.04953e-08
2	1	0	1	1	22.8963	0.046259	0.046078	0.000294133	2	1.89984e-06	1.35531e-08
2	1	0	1	1	22.9963	0.0512591	0.0511496	0.000335933	2	1.93168e-06	1.71829e-08
2	1	0	1	1	23.0963	0.0562593	0.0561513	0.00037975	2	1.96785e-06	2.13235e-08
2	1	0	1	1	23.1963	0.0612594	0.0611148	0.000419841	2	2.00823e-06	2.56585e-08
2	1	0	1	1	23.2963	0.0662595	0.0661631	0.000458186	2	2.05251e-06	3.0315e-08
2	1	0	1	1	23.3963	0.0712596	0.0711605	0.000488359	2	2.10017e-06	3.47519e-08
2	1	0	1	1	23.4963	0.0762598	0.0761251	0.000511679	2	2.15055e-06	3.89516e-08
2	1	0	1	1	23.5963	0.0812599	0.0811045	0.000527211	2	2.20293e-06	4.27592e-08
2	1	0	1	1	23.6963	0.08626	0.0860987	0.00053712	2	2.25654e-06	4.62454e-08
2	1	0	1	1	23.7963	0.0912601	0.0911312	0.00053853	2	2.31068e-06	4.90769e-08
2	1	0	1	1	23.8963	0.0962603	0.096101	0.000534268	2	2.36471e-06	5.13437e-08
2	1	0	1	1	23.9963	0.10126	0.101132	0.000527147	2	2.41814e-06	5.33117e-08
2	1	0	1	1	24.0963	0.106261	0.106126	0.000516803	2	2.47063e-06	5.4846e-08
2	1	0	1	1	24.1963	0.111261	0.111109	0.000501775	2	2.52193e-06	5.57518e-08
2	1	0	1	1	24.2963	0.116261	0.116119	0.000489226	2	2.57191e-06	5.68086e-08
2	1	0	1	1	24.3963	0.121261	0.121117	0.000475947	2	2.6205e-06	5.76451e-08
2	1	0	1	1	24.4963	0.126261	0.1261	0.000463919	2	2.66772e-06	5.85004e-08
2	1	0	1	1	24.5963	0.131261	0.131117	0.000449052	2	2.7136e-06	5.88783e-08
2	1	0	1	1	24.6963	0.136261	0.136112	0.000436547	2	2.75821e-06	5.94194e-08
2	1	0	1	1	24.7963	0.141261	0.141127	0.000427685	2	2.80161e-06	6.03578e-08
2	1	0	1	1	24.8963	0.146262	0.146122	0.00041464	2	2.84391e-06	6.0588e-08
2	1	0	1	1	24.9963	0.151262	0.15111	0.000404962	2	2.88516e-06	6.11938e-08
2	1	0	1	1	25.0963	0.156262	0.156178	0.000396362	2	2.92551e-06	6.19031e-08
2	1	0	1	1	25.1963	0.161262	0.161152	0.000387856	2	2.96498e-06	6.2504e-08
2	1	0	1	1	25.2963	0.166262	0.166136	0.000381093	2	3.00366e-06	6.33133e-08
2	1	0	1	1	25.3963	0.171262	0.171132	0.000373598	2	3.04162e-06	6.39347e-08
2	1	0	1	1	25.4963	0.176262	0.176128	0.000367137	2	3.07891e-06	6.46629e-08
2	1	0	1	1	25.5963	0.181262	0.181156	0.000360765	2	3.11563e-06	6.53547e-08
2	1	0	1	1	25.6963	0.186263	0.186152	0.00035634	2	3.15179e-06	6.63336e-08
2	1	0	1	1	25.7963	0.191263	0.191148	0.000352129	2	3.18748e-06	6.73086e-08
2	1	0	1	1	25.8963	0.196263	0.196165	0.000348438	2	3.22275e-06	6.83513e-08
2	1	0	1	1	25.9963	0.201263	0.201129	0.000344657	2	3.25763e-06	6.93205e-08
2	1	0	1	1	26.0963	0.206263	0.20615	0.000341769	2	3.29218e-06	7.04559e-08
2	1	0	1	1	26.1963	0.211263	0.211118	0.000338344	2	3.3264e-06	7.14306e-08
2	1	0	1	1	26.2963	0.216263	0.216156	0.000334714	2	3.36037e-06	7.23505e-08
2	1	0	1	1	26.3963	0.221263	0.221142	0.000333806	2	3.39413e-06	7.38185e-08
2	1	0	1	1	26.4963	0.226264	0.226121	0.000331404	2	3.4277e-06	7.49375e-08
2	1	0	1	1	26.5963	0.231264	0.231136	0.000331259	2	3.46112e-06	7.65661e-08
2	1	0	1	1	26.6963	0.236264	0.236141	0.000328827	2	3.49442e-06	7.76496e-08
2	1	0	1	1	26.7963	0.241264	0.241104	0.000328622	2	3.52764e-06	7.9232e-08
2	1	0	1	1	26.8963	0.246264	0.246122	0.000329486	2	3.56083e-06	8.10939e-08
2	1	0	1	1	26.9963	0.251264	0.251142	0.000328915	2	3.59403e-06	8.26045e-08
2	1	0	1	1	27.0963	0.256264	0.256145	0.000330277	2	3.62728e-06	8.45988e-08
2	1	0	1	1	27.1963	0.261264	0.261192	0.000330887	2	3.66059e-06	8.6425e-08
2	1	0	1	1	27.2963	0.266265	0.266118	0.00033221	2	3.69403e-06	8.84071e-08
2	1	0	1	1	27.3963	0.271265	0.271122	0.000333833	2	3.72764e-06	9.05095e-08
2	1	0	1	1	27.4963	0.276265	0.276151	0.000336511	2	3.76147e-06	9.2928e-08
2	1	0	1	1	27.5963	0.281265	0.281146	0.000339519	2	3.79554e-06	9.54543e-08
2	1	0	1	1	27.6963	0.286265	0.286137	0.000342538	2	3.82991e-06	9.80127e-08
2	1	0	1	1	27.7963	0.291265	0.291147	0.000345806	2	3.86462e-06	1.0068e-07
2	1	0	0	1	27.8965	0.296265	0.296172	0.00035022	2	3.89979e-06	1.03725e-07
2	0	0	0	1	27.9869	0.299215	0.299045	0.000266078	2	3.9305e-06	7.95691e-08
2	0	0	0	1	28.0869	0.294215	0.294066	0.000226689	2	3.95459e-06	6.66616e-08
2	0	0	1	1	28.1871	0.289215	0.28907	0.000206241	2	3.97604e-06	5.96181e-08
2	0	0	1	1	28.2871	0.284215	0.28405	0.000190469	2	3.99565e-06	5.41028e-08
2	0	0	1	1	28.3871	0.279215	0.279082	0.000177883	2	4.01389e-06	4.96439e-08
2	0	0	1	1	28.4871	0.274215	0.274067	0.000167884	2	4.03101e-06	4.60114e-08
2	0	0	1	1	28.5871	0.269215	0.269068	0.000159023	2	4.0472e-06	4.27881e-08
2	0	0	1	1	28.6871	0.264215	0.264084	0.000152152	2	4.06259e-06	4.0181e-08
2	0	0	1	1	28.7871	0.259214	0.259045	0.000146086	2	4.07728e-06	3.7843e-08
2	0	0	1	1	28.8871	0.254214	0.254046	0.000140474	2	4.09134e-06	3.56869e-08
2	0	0	1	1	28.9871	0.249214	0.249099	0.00013443	2	4.10487e-06	3.34864e-08
2	0	0	1	1	29.0871	0.244214	0.24407	0.000130425	2	4.1179e-06	3.18329e-08
2	0	0	1	1	29.1871	0.239214	0.239061	0.000127769	2	4.13046e-06	3.05445e-08
2	0	0	1	1	29.2871	0.234214	0.234081	0.000120514	2	4.14262e-06	2.82101e-08
2	0	0	1	1	29.3871	0.229214	0.229099	0.000117501	2	4.15437e-06	2.69193e-08
2	0	0	1	1	29.4871	0.224214	0.224057	0.000114194	2	4.16578e-06	2.5586e-08
2	0	0	1	1	29.5871	0.219213	0.219067	0.000111016	2	4.17684e-06	2.432e-08
2	0	0	1	1	29.6871	0.214213	0.214111	0.000108459	2	4.18757e-06	2.32222e-08
2	0	0	1	1	29.7871	0.209213	0.209064	0.000105295	2	4.19799e-06	2.20133e-08
2	0	0	1	1	29.8871	0.204213	0.204039	0.000101835	2	4.20812e-06	2.07782e-08
2	0	0	1	1	29.9871	0.199213	0.199015	9.69346e-05	2	4.21793e-06	1.92914e-08
2	0	0	1	1	30.0871	0.194213	0.194025	9.57281e-05	2	4.22748e-06	1.85736e-08
2	0	0	1	1	30.1871	0.189213	0.189047	9.3642e-05	2	4.23674e-06	1.77028e-08
2	0	0	1	1	30.2871	0.184213	0.184063	9.00509e-05	2	4.24575e-06	1.6575e-08
2	0	0	1	1	30.3871	0.179212	0.179065	8.74172e-05	2	4.25447e-06	1.56534e-08
2	0	0	1	1	30.4871	0.174212	0.174022	8.46228e-05	2	4.26292e-06	1.47262e-08
2	0	0	1	1	30.5871	0.169212	0.169025	8.27504e-05	2	4.27108e-06	1.39869e-08
2	0	0	1	1	30.6871	0.164212	0.164025	7.96451e-05	2	4.27897e-06	1.30638e-08
2	0	0	1	1	30.7871	0.159212	0.159052	7.62218e-05	2	4.28658e-06	1.21233e-08
2	0	0	1	1	30.8871	0.154212	0.154052	7.35652e-05	2	4.29389e-06	1.13328e-08
2	0	0	1	1	30.9871	0.149212	0.149034	7.09279e-05	2	4.30087e-06	1.05707e-08
2	0	0	1	1	31.0871	0.144211	0.144025	6.63618e-05	2	4.30754e-06	9.55776e-09
2	0	0	1	1	31.1871	0.139211	0.139011	6.28802e-05	2	4.31387e-06	8.74102e-09
2	0	0	1	1	31.2871	0.134211	0.134012	5.95188e-05	2	4.31984e-06	7.97624e-09
2	0	0	1	1	31.3871	0.129211	0.129047	5.55515e-05	2	4.3254e-06	7.16872e-09
2	0	0	1	1	31.4871	0.124211	0.123992	5.1547e-05	2	4.3305e-06	6.39141e-09
2	0	0	1	1	31.5871	0.119211	0.119038	4.47923e-05	2	4.33512e-06	5.33198e-09
2	0	0	1	1	31.6871	0.114211	0.11403	3.81436e-05	2	4.33918e-06	4.34951e-09
2	0	0	1	1	31.7871	0.109211	0.109037	3.34538e-05	2	4.34259e-06	3.6477e-09
2	0	0	1	1	31.8871	0.10421	0.103978	2.43887e-05	2	4.34526e-06	2.53588e-09
2	0	0	1	1	31.9871	0.0992104	0.0990429	1.45993e-05	2	4.34706e-06	1.44596e-09
2	0	0	1	1	32.0871	0.0942102	0.0940295	4.12814e-06	2	4.34784e-06	3.88167e-10
2	0	0	1	1	32.1871	0.0892101	0.0890597	-7.89925e-06	2	4.3474e-06	-7.03505e-10
2	0	0	1	1	32.2871	0.08421	0.0840336	-2.53901e-05	2	4.3455e-06	-2.13362e-09
2	0	0	1	1	32.3871	0.0792099	0.0790139	-4.39673e-05	2	4.34187e-06	-3.47403e-09
2	0	0	1	1	32.4871	0.0742097	0.0740324	-6.72325e-05	2	4.33616e-06	-4.97738e-09
2	0	0	1	1	32.5871	0.0692096	0.0690445	-9.27145e-05	2	4.32799e-06	-6.40143e-09
2	0	0	1	1	32.6871	0.0642095	0.0640842	-0.000124073	2	4.31693e-06	-7.95114e-09
2	0	0	1	1	32.7871	0.0592094	0.0590624	-0.000160691	2	4.30254e-06	-9.49078e-09
2	0	0	1	1	32.8871	0.0542092	0.0540862	-0.000199511	2	4.28438e-06	-1.07908e-08
2	0	0	1	1	32.9871	0.0492091	0.0490156	-0.00024271	2	4.26207e-06	-1.18966e-08
2	0	0	1	1	33.0871	0.044209	0.0440224	-0.000286748	2	4.23537e-06	-1.26233e-08
2	0	0	1	1	33.1871	0.0392089	0.0390801	-0.000332051	2	4.20423e-06	-1.29766e-08
2	0	0	1	1	33.2871	0.0342087	0.0340307	-0.000372478	2	4.16879e-06	-1.26757e-08
2	0	0	1	1	33.3871	0.0292086	0.0290164	-0.000407462	2	4.1295e-06	-1.1823e-08
2	0	0	1	1	33.4871	0.0242085	0.0240221	-0.000436902	2	4.08699e-06	-1.04953e-08
2	0	0	1	1	33.5871	0.0192083	0.0190438	-0.000455423	2	4.0421e-06	-8.67296e-09
2	0	0	1	1	33.6871	0.0142082	0.0140304	-0.000464272	2	3.99578e-06	-6.51394e-09
2	0	0	1	1	33.7871	0.00920809	0.00907435	-0.000466472	2	3.9489e-06	-4.23293e-09
2	0	0	1	1	33.8871	0.00420797	0.00403346	-0.000460222	2	3.90232e-06	-1.85629e-09
2	0	0	1	1	33.9871	-0.000792159	-0.000942762	-0.000453844	2	3.85663e-06	4.27866e-10
2	0	0	1	1	34.0871	-0.00579229	-0.0060144	-0.000435457	2	3.81226e-06	2.61901e-09
2	0	0	1	1	34.1871	-0.0107924	-0.0109673	-0.000415744	2	3.76957e-06	4.55959e-09
2	0	0	1	1	34.2871	-0.0157925	-0.0159902	-0.000398813	2	3.72863e-06	6.37709e-09
2	0	0	1	1	34.3871	-0.0207927	-0.0210035	-0.00038004	2	3.68947e-06	7.98217e-09
2	0	0	1	1	34.4871	-0.0257928	-0.0259861	-0.000364566	2	3.65203e-06	9.47365e-09
2	0	0	1	1	34.5871	-0.0307929	-0.0310058	-0.000348704	2	3.61618e-06	1.08118e-08
2	0	0	1	1	34.6871	-0.0357931	-0.0359947	-0.00033606	2	3.58181e-06	1.20964e-08
2	0	0	1	1	34.7871	-0.0407932	-0.04099	-0.000322185	2	3.5488e-06	1.32064e-08
2	0	0	1	1	34.8871	-0.0457933	-0.0459461	-0.000311405	2	3.51701e-06	1.43078e-08
2	0	0	1	1	34.9871	-0.0507934	-0.0510125	-0.000300667	2	3.48631e-06	1.53378e-08
2	0	0	1	1	35.0871	-0.0557936	-0.0560555	-0.000289911	2	3.45657e-06	1.62511e-08
2	0	0	1	1	35.1871	-0.0607937	-0.0609893	-0.000281968	2	3.42774e-06	1.7197e-08
2	0	0	1	1	35.2871	-0.0657938	-0.0660387	-0.000275224	2	3.39973e-06	1.81754e-08
2	0	0	1	1	35.3871	-0.070794	-0.0710244	-0.000266595	2	3.37244e-06	1.89348e-08
2	0	0	1	1	35.4871	-0.0757941	-0.0759964	-0.000261476	2	3.34583e-06	1.98712e-08
2	0	0	1	1	35.5871	-0.0807942	-0.0810193	-0.000254691	2	3.3198e-06	2.06349e-08
2	0	0	1	1	35.6871	-0.0857943	-0.0859934	-0.000249998	2	3.29434e-06	2.14982e-08
2	0	0	1	1	35.7871	-0.0907945	-0.0910216	-0.000245635	2	3.26937e-06	2.23581e-08
2	0	0	1	1	35.8871	-0.0957946	-0.0960307	-0.000240306	2	3.24489e-06	2.30767e-08
2	0	0	0	1	35.9873	-0.100795	-0.100996	-0.000237292	2	3.22079e-06	2.39656e-08
2	0	0	0	1	36.0873	-0.105795	-0.10602	-0.000233857	2	3.19713e-06	2.47935e-08
2	0	0	0	1	36.1873	-0.110795	-0.110984	-0.000229301	2	3.17384e-06	2.54487e-08
2	0	0	0	1	36.2873	-0.115795	-0.116004	-0.000225512	2	3.1509e-06	2.61604e-08
2	0	0	0	1	36.3873	-0.120795	-0.120996	-0.000223776	2	3.12826e-06	2.70759e-08
2	0	0	0	1	36.4873	-0.125795	-0.125986	-0.000219833	2	3.10594e-06	2.76958e-08
2	0	0	0	1	36.5873	-0.130795	-0.131015	-0.000217413	2	3.08386e-06	2.84843e-08
2	0	0	0	1	36.6873	-0.135796	-0.135997	-0.000215037	2	3.06206e-06	2.92445e-08
2	0	0	0	1	36.7873	-0.140796	-0.140956	-0.000212515	2	3.04049e-06	2.99552e-08
2	0	0	0	1	36.8873	-0.145796	-0.145967	-0.000211498	2	3.01912e-06	3.08716e-08
2	0	0	0	1	36.9873	-0.150796	-0.151009	-0.000208251	2	2.99797e-06	3.14477e-08
2	0	0	0	1	37.0873	-0.155796	-0.156026	-0.000207101	2	2.97695e-06	3.23132e-08
2	0	0	0	1	37.1873	-0.160796	-0.161029	-0.000205736	2	2.95612e-06	3.31294e-08
2	0	0	0	1	37.2873	-0.165796	-0.165997	-0.000206297	2	2.93542e-06	3.42447e-08
2	0	0	0	1	37.3873	-0.170797	-0.170993	-0.000202765	2	2.91483e-06	3.46713e-08
2	0	0	0	1	37.4873	-0.175797	-0.176005	-0.000202584	2	2.89434e-06	3.56559e-08
2	0	0	0	1	37.5873	-0.180797	-0.181013	-0.000202404	2	2.87394e-06	3.66379e-08
2	0	0	0	1	37.6873	-0.185797	-0.186023	-0.000201834	2	2.85359e-06	3.75456e-08
2	0	0	0	1	37.7873	-0.190797	-0.191024	-0.000201825	2	2.83329e-06	3.85534e-08
2	0	0	0	1	37.8873	-0.195797	-0.195992	-0.00020011	2	2.81299e-06	3.92199e-08
2	1	0	1	0	37.9714	-0.200022	-0.200104	-0.00021372	2	2.79593e-06	4.27662e-08
2	1	0	1	0	38.0667	-0.195247	-0.195417	-8.43754e-05	2	2.78691e-06	1.64884e-08
2	1	0	1	0	38.1667	-0.190247	-0.190396	-7.10832e-05	2	2.77945e-06	1.35339e-08
2	1	0	1	0	38.2667	-0.185247	-0.185434	-6.14069e-05	2	2.77311e-06	1.13869e-08
2	1	0	1	0	38.3667	-0.180247	-0.180394	-5.32886e-05	2	2.76761e-06	9.61295e-09
2	1	0	1	0	38.4667	-0.175247	-0.175413	-4.74965e-05	2	2.7628e-06	8.3315e-09
2	1	0	1	0	38.5667	-0.170246	-0.170484	-4.38154e-05	2	2.75856e-06	7.46983e-09
2	1	0	1	0	38.6667	-0.165246	-0.165424	-3.82565e-05	2	2.75482e-06	6.32856e-09
2	1	0	1	0	38.7667	-0.160246	-0.160436	-3.37769e-05	2	2.75151e-06	5.41905e-09
2	1	0	1	0	38.8667	-0.155246	-0.15541	-3.02088e-05	2	2.7486e-06	4.69477e-09
2	1	0	1	0	38.9667	-0.150246	-0.150408	-2.78913e-05	2	2.74607e-06	4.19507e-09
2	1	0	1	0	39.0667	-0.145246	-0.145409	-2.37156e-05	2	2.74386e-06	3.44846e-09
2	1	0	1	0	39.1667	-0.140246	-0.140438	-2.06314e-05	2	2.74195e-06	2.89744e-09
2	1	0	1	0	39.2667	-0.135246	-0.135413	-1.78052e-05	2	2.74031e-06	2.41106e-09
2	1	0	1	0	39.3667	-0.130245	-0.130427	-1.52828e-05	2	2.73895e-06	1.99329e-09
2	1	0	1	0	39.4667	-0.125245	-0.12543	-1.33945e-05	2	2.73783e-06	1.68007e-09
2	1	0	1	0	39.5667	-0.120245	-0.120398	-1.05647e-05	2	2.73695e-06	1.27197e-09
2	1	0	1	0	39.6667	-0.115245	-0.115464	-8.63407e-06	2	2.73631e-06	9.96922e-10
2	1	0	1	0	39.7667	-0.110245	-0.110388	-5.71422e-06	2	2.73586e-06	6.3078e-10
2	1	0	1	0	39.8667	-0.105245	-0.105411	-4.23751e-06	2	2.73562e-06	4.46678e-10
2	1	0	1	0	39.9667	-0.100245	-0.100416	-2.38809e-06	2	2.73559e-06	2.39804e-10
2	1	0	0	0	40.0669	-0.0952446	-0.0953713	5.3706e-07	3	2.73571e-06	-5.12201e-11
2	1	0	0	0	40.1669	-0.0902445	-0.0903855	1.51986e-07	3	2.73603e-06	-1.37373e-11
2	1	0	0	0	40.2669	-0.0852443	-0.0854326	2.05439e-06	3	2.73652e-06	-1.75512e-10
2	1	0	0	0	40.3669	-0.0802442	-0.0804277	4.68456e-06	3	2.73715e-06	-3.76768e-10
2	1	0	0	0	40.4669	-0.0752441	-0.0754293	6.29551e-06	3	2.73797e-06	-4.74866e-10
2	1	0	0	0	40.5669	-0.0702439	-0.0704498	7.87467e-06	3	2.73891e-06	-5.54769e-10
2	1	0	0	0	40.6669	-0.0652438	-0.0654217	8.33393e-06	3	2.74001e-06	-5.4522e-10
2	1	0	0	0	40.7669	-0.0602437	-0.06042	1.08493e-05	3	2.74127e-06	-6.55513e-10
2	1	0	0	0	40.8669	-0.0552436	-0.0554406	1.17678e-05	3	2.74268e-06	-6.52414e-10
2	1	0	0	0	40.9669	-0.0502434	-0.0503711	1.24214e-05	3	2.74427e-06	-6.25678e-10
2	1	0	0	0	41.0669	-0.0452433	-0.0453556	1.51611e-05	3	2.746e-06	-6.87639e-10
2	1	0	0	0	41.1669	-0.0402432	-0.0403741	1.80403e-05	3	2.74792e-06	-7.2836e-10
2	1	0	0	0	41.2669	-0.035243	-0.0354032	1.93845e-05	3	2.75006e-06	-6.86273e-10
2	1	0	0	0	41.3669	-0.0302429	-0.0303824	2.14265e-05	3	2.75241e-06	-6.50988e-10
2	1	0	0	0	41.4669	-0.0252428	-0.0254369	2.38111e-05	3	2.75502e-06	-6.05681e-10
2	1	0	0	0	41.5669	-0.0202427	-0.0203886	2.73986e-05	3	2.75795e-06	-5.58621e-10
2	1	0	0	0	41.6669	-0.0152425	-0.0153933	3.26201e-05	3	2.76125e-06	-5.02132e-10
2	1	0	0	0	41.7669	-0.0102424	-0.0104415	3.78698e-05	3	2.76502e-06	-3.95417e-10
2	1	0	0	0	41.8669	-0.00524227	-0.00539635	4.26303e-05	3	2.76936e-06	-2.30048e-10
2	1	0	0	0	41.9669	-0.000240241	-0.000369234	5.21582e-05	3	2.77444e-06	-1.92586e-11
2	1	0	0	0	42.0669	0.00475798	0.00464091	6.16862e-05	3	2.78038e-06	2.8628e-10
2	1	0	0	0	42.1669	0.00975811	0.00964046	7.23675e-05	3	2.78741e-06	6.97656e-10
2	1	0	0	0	42.2669	0.0147582	0.0145732	8.93108e-05	3	2.79582e-06	1.30155e-09
2	1	0	0	0	42.3669	0.0197584	0.0196088	0.000108234	3	2.8059e-06	2.12234e-09
2	1	0	0	0	42.4669	0.0247585	0.0245978	0.000130404	3	2.81804e-06	3.20765e-09
2	1	0	0	0	42.5669	0.0297586	0.0296333	0.000156436	3	2.83265e-06	4.63571e-09
2	1	0	0	0	42.6669	0.0347587	0.0346414	0.000187535	3	2.85014e-06	6.49646e-09
2	1	0	0	0	42.7669	0.0397589	0.0396059	0.000222278	3	2.87097e-06	8.80353e-09
2	1	0	0	0	42.8669	0.044759	0.0446097	0.000261443	3	2.8955e-06	1.16629e-08
2	1	0	0	0	42.9669	0.0497591	0.0496326	0.000301859	3	2.92401e-06	1.49821e-08
2	1	0	0	0	43.0669	0.0547592	0.0546618	0.000344635	3	2.95676e-06	1.88383e-08
2	1	0	0	0	43.1669	0.0597594	0.0596211	0.000384961	3	2.99364e-06	2.29518e-08
2	1	0	0	0	43.2669	0.0647595	0.0646492	0.000425059	3	3.0345e-06	2.74797e-08
2	1	0	0	0	43.3669	0.0697596	0.069617	0.00045773	3	3.07893e-06	3.18658e-08
2	1	0	0	0	43.4669	0.0747597	0.0746324	0.000484609	3	3.12638e-06	3.61675e-08
2	1	0	0	0	43.5669	0.0797599	0.0796129	0.000504486	3	3.17618e-06	4.01636e-08
2	1	0	0	0	43.6669	0.08476	0.0846474	0.000517717	3	3.22761e-06	4.38234e-08
2	1	0	0	0	43.7669	0.0897601	0.0896364	0.000522753	3	3.27994e-06	4.68577e-08
2	1	0	0	0	43.8669	0.0947603	0.0946349	0.000522044	3	3.33252e-06	4.94036e-08
2	1	0	0	0	43.9669	0.0997604	0.0995719	0.000516613	3	3.38478e-06	5.14401e-08
2	1	0	0	0	44.0669	0.104761	0.104598	0.000507032	3	3.43633e-06	5.30344e-08
2	1	0	0	0	44.1669	0.109761	0.10965	0.000496398	3	3.48683e-06	5.44303e-08
2	1	0	0	0	44.2669	0.114761	0.114621	0.000482931	3	3.5361e-06	5.53542e-08
2	1	0	0	0	44.3669	0.119761	0.119614	0.000469153	3	3.58404e-06	5.6117e-08
2	1	0	0	0	44.4669	0.124761	0.124592	0.000455937	3	3.6306e-06	5.6806e-08
2	1	0	0	0	44.5669	0.129761	0.129607	0.000442325	3	3.67582e-06	5.73286e-08
2	1	0	0	0	44.6669	0.134761	0.13463	0.000429771	3	3.71972e-06	5.78602e-08
2	1	0	0	0	44.7669	0.139761	0.139623	0.000416619	3	3.76237e-06	5.81697e-08
2	1	0	0	0	44.8669	0.144761	0.144588	0.000407568	3	3.80386e-06	5.89294e-08
2	1	0	0	0	44.9669	0.149762	0.149633	0.000396192	3	3.84426e-06	5.92834e-08
2	1	0	0	0	45.0669	0.154762	0.154634	0.000386795	3	3.88369e-06	5.98115e-08
2	1	0	0	0	45.1669	0.159762	0.159626	0.000376258	3	3.92215e-06	6.00605e-08
2	1	0	0	0	45.2669	0.164762	0.164621	0.00036938	3	3.95979e-06	6.08077e-08
2	1	0	0	0	45.3669	0.169762	0.169581	0.000361037	3	3.99665e-06	6.12252e-08
2	1	0	0	0	45.4669	0.174762	0.174621	0.000355155	3	4.0328e-06	6.20176e-08
2	1	0	0	0	45.5669	0.179762	0.179622	0.000349962	3	4.0683e-06	6.28608e-08
2	1	0	0	0	45.6669	0.184763	0.184589	0.000343165	3	4.1032e-06	6.33443e-08
2	1	0	0	0	45.7669	0.189763	0.189609	0.000337491	3	4.13757e-06	6.39915e-08
2	1	0	0	0	45.8669	0.194763	0.194622	0.000333296	3	4.17146e-06	6.48666e-08
2	1	0	0	0	45.9669	0.199763	0.19962	0.000328147	3	4.20489e-06	6.55047e-08
2	1	0	0	0	46.0669	0.204763	0.20468	0.000325315	3	4.23793e-06	6.65856e-08
2	1	0	0	0	46.1669	0.209763	0.209653	0.00032106	3	4.27059e-06	6.73113e-08
2	1	0	0	0	46.2669	0.214763	0.21467	0.00031716	3	4.30293e-06	6.80846e-08
2	1	0	0	0	46.3669	0.219763	0.219672	0.000315035	3	4.335e-06	6.92045e-08
2	1	0	0	0	46.4669	0.224764	0.224644	0.000314443	3	4.36679e-06	7.06379e-08
2	1	0	0	0	46.5669	0.229764	0.229679	0.000311387	3	4.39836e-06	7.15191e-08
2	1	0	0	0	46.6669	0.234764	0.23462	0.000308566	3	4.42974e-06	7.23959e-08
2	1	0	0	0	46.7669	0.239764	0.23962	0.000307674	3	4.46097e-06	7.37248e-08
2	1	0	0	0	46.8669	0.244764	0.244619	0.000307856	3	4.49209e-06	7.53076e-08
2	1	0	0	0	46.9669	0.249764	0.2496	0.000306302	3	4.52311e-06	7.64528e-08
2	1	0	0	0	47.0669	0.254764	0.254618	0.00030547	3	4.55408e-06	7.77782e-08
2	1	0	0	0	47.1669	0.259764	0.259673	0.000306938	3	4.58508e-06	7.97034e-08
2	1	0	0	0	47.2669	0.264765	0.264659	0.000306214	3	4.61608e-06	8.10421e-08
2	1	0	0	0	47.3669	0.269765	0.26965	0.000307826	3	4.64715e-06	8.30053e-08
2	1	0	0	0	47.4669	0.274765	0.274667	0.000309257	3	4.67832e-06	8.49428e-08
2	1	0	0	0	47.5669	0.279765	0.279605	0.000311513	3	4.70965e-06	8.71007e-08
2	1	0	0	0	47.6669	0.284765	0.284638	0.000314005	3	4.74118e-06	8.93777e-08
2	1	0	0	0	47.7669	0.289765	0.289641	0.000315969	3	4.77296e-06	9.15175e-08
2	1	0	1	0	47.8671	0.294765	0.294651	0.000319131	3	4.80507e-06	9.40322e-08
2	1	0	1	0	47.9666	0.29974	0.299629	0.000323093	3	4.8373e-06	9.6808e-08
2	0	0	1	0	48.0575	0.295715	0.295535	0.000210553	3	4.85812e-06	6.22256e-08
2	0	0	0	0	48.1577	0.290715	0.290542	0.000190389	3	4.87787e-06	5.5316e-08
2	0	0	0	0	48.2577	0.285715	0.285554	0.0001757	3	4.89584e-06	5.01718e-08
2	0	0	0	0	48.3577	0.280715	0.280509	0.000165126	3	4.91263e-06	4.63193e-08
2	0	0	0	0	48.4577	0.275715	0.275563	0.000154922	3	4.92852e-06	4.26907e-08
2	0	0	0	0	48.5577	0.270715	0.270593	0.000147422	3	4.94346e-06	3.98913e-08
2	0	0	0	0	48.6577	0.265715	0.265559	0.000139665	3	4.95765e-06	3.70894e-08
2	0	0	0	0	48.7577	0.260714	0.260541	0.000135023	3	4.97122e-06	3.51791e-08
2	0	0	0	0	48.8577	0.255714	0.255583	0.000129042	3	4.98424e-06	3.2981e-08
2	0	0	0	0	48.9577	0.250714	0.250539	0.000125347	3	4.99673e-06	3.14043e-08
2	0	0	0	0	49.0577	0.245714	0.245512	0.000121215	3	5.00878e-06	2.97598e-08
2	0	0	0	0	49.1577	0.240714	0.240521	0.000116273	3	5.02042e-06	2.79661e-08
2	0	0	0	0	49.2577	0.235714	0.235557	0.000113788	3	5.03168e-06	2.68035e-08
2	0	0	0	0	49.3577	0.230714	0.230557	0.000110262	3	5.04259e-06	2.54216e-08
2	0	0	0	0	49.4577	0.225714	0.225556	0.000107727	3	5.05315e-06	2.42985e-08
2	0	0	0	0	49.5577	0.220713	0.220579	0.00010243	3	5.0634e-06	2.25938e-08
2	0	0	0	0	49.6577	0.215713	0.215543	9.93492e-05	3	5.07334e-06	2.1414e-08
2	0	0	0	0	49.7577	0.210713	0.210582	9.64223e-05	3	5.08301e-06	2.03048e-08
2	0	0	0	0	49.8577	0.205713	0.205582	9.39617e-05	3	5.09239e-06	1.93169e-08
2	0	0	0	0	49.9577	0.200713	0.200526	9.15789e-05	3	5.10148e-06	1.8364e-08
2	0	0	0	0	50.0577	0.195713	0.195512	8.83305e-05	3	5.11032e-06	1.72697e-08
2	0	0	0	0	50.1577	0.190713	0.190521	8.63645e-05	3	5.11891e-06	1.64542e-08
2	0	0	0	0	50.2577	0.185713	0.185508	8.34693e-05	3	5.12723e-06	1.54842e-08
2	0	0	0	0	50.3577	0.180712	0.180555	8.15722e-05	3	5.1353e-06	1.47283e-08
2	0	0	0	0	50.4577	0.175712	0.175547	7.83698e-05	3	5.14309e-06	1.37576e-08
2	0	0	0	0	50.5577	0.170712	0.170573	7.58809e-05	3	5.15064e-06	1.29432e-08
2	0	0	0	0	50.6577	0.165712	0.165542	7.48458e-05	3	5.15792e-06	1.23901e-08
2	0	0	0	0	50.7577	0.160712	0.16059	6.96261e-05	3	5.16491e-06	1.11813e-08
2	0	0	0	0	50.8577	0.155712	0.155585	6.7646e-05	3	5.17163e-06	1.05247e-08
2	0	0	0	0	50.9577	0.150712	0.150525	6.37546e-05	3	5.17804e-06	9.59664e-09
2	0	0	0	0	51.0577	0.145712	0.145545	6.15148e-05	3	5.18415e-06	8.95319e-09
2	0	0	0	0	51.1577	0.140711	0.140519	5.86144e-05	3	5.18994e-06	8.23644e-09
2	0	0	0	0	51.2577	0.135711	0.135504	5.43114e-05	3	5.19537e-06	7.3594e-09
2	0	0	0	0	51.3577	0.130711	0.130538	5.03777e-05	3	5.20042e-06	6.57621e-09
2	0	0	0	0	51.4577	0.125711	0.125548	4.62973e-05	3	5.20504e-06	5.81254e-09
2	0	0	0	0	51.5577	0.120711	0.120513	4.11659e-05	3	5.20919e-06	4.96101e-09
2	0	0	0	0	51.6577	0.115711	0.115548	3.5252e-05	3	5.21282e-06	4.0733e-09
2	0	0	0	0	51.7577	0.110711	0.110535	2.93293e-05	3	5.21582e-06	3.2419e-09
2	0	0	0	0	51.8577	0.105711	0.105498	2.20694e-05	3	5.21812e-06	2.32828e-09
2	0	0	0	0	51.9577	0.10071	0.100537	1.31244e-05	3	5.21961e-06	1.31948e-09
2	0	0	0	0	52.0577	0.0957103	0.0955307	2.10562e-06	3	5.22012e-06	2.01151e-10
2	0	0	0	0	52.1577	0.0907101	0.0905714	-1.03987e-05	3	5.21948e-06	-9.41825e-10
2	0	0	0	0	52.2577	0.08571	0.085504	-2.61196e-05	3	5.21745e-06	-2.23333e-09
2	0	0	0	0	52.3577	0.0807099	0.0805151	-4.27131e-05	3	5.21379e-06	-3.43905e-09
2	0	0	0	0	52.4577	0.0757098	0.0755516	-6.63405e-05	3	5.20817e-06	-5.01213e-09
2	0	0	0	0	52.5577	0.0707096	0.0705298	-9.01126e-05	3	5.20019e-06	-6.35562e-09
2	0	0	0	0	52.6577	0.0657095	0.0655419	-0.000120634	3	5.18947e-06	-7.90659e-09
2	0	0	0	0	52.7577	0.0607094	0.0605381	-0.000154775	3	5.17555e-06	-9.36979e-09
2	0	0	0	0	52.8577	0.0557093	0.0555788	-0.000191885	3	5.15803e-06	-1.06648e-08
2	0	0	0	0	52.9577	0.0507091	0.0505623	-0.000233491	3	5.13649e-06	-1.18058e-08
2	0	0	0	0	53.0577	0.045709	0.0455066	-0.000277755	3	5.1106e-06	-1.26397e-08
2	0	0	0	0	53.1577	0.0407089	0.0405452	-0.000322033	3	5.08034e-06	-1.30569e-08
2	0	0	0	0	53.2577	0.0357088	0.0355223	-0.000365549	3	5.04577e-06	-1.29851e-08
2	0	0	0	0	53.3577	0.0307086	0.0305344	-0.000400011	3	5.00722e-06	-1.22141e-08
2	0	0	0	0	53.4577	0.0257085	0.0255561	-0.00042975	3	4.96531e-06	-1.09827e-08
2	0	0	0	0	53.5577	0.0207084	0.0205248	-0.000453305	3	4.92078e-06	-9.30397e-09
2	0	0	0	0	53.6577	0.0157083	0.0155623	-0.00046499	3	4.87456e-06	-7.23631e-09
2	0	0	0	0	53.7577	0.0107081	0.0105543	-0.000467855	3	4.82755e-06	-4.93787e-09
2	0	0	0	0	53.8577	0.005708	0.0055664	-0.000464597	3	4.7806e-06	-2.58614e-09
2	0	0	0	0	53.9577	0.000707879	0.000523391	-0.000455115	3	4.73438e-06	-2.38203e-10
2	0	0	0	0	54.0577	-0.00429225	-0.00444965	-0.00044035	3	4.68931e-06	1.95941e-09
2	0	0	0	0	54.1577	-0.00929238	-0.00948949	-0.000424288	3	4.64584e-06	4.02628e-09
2	0	0	0	0	54.2577	-0.0142925	-0.0144996	-0.000407714	3	4.60408e-06	5.91171e-09
2	0	0	0	0	54.3577	-0.0192926	-0.0194801	-0.000389893	3	4.56406e-06	7.59516e-09
2	0	0	0	0	54.4577	-0.0242928	-0.0244892	-0.00037414	3	4.52576e-06	9.16239e-09
2	0	0	0	0	54.5577	-0.0292929	-0.0295237	-0.000356344	3	4.48904e-06	1.05206e-08
2	0	0	0	0	54.6577	-0.034293	-0.0344957	-0.000342285	3	4.45385e-06	1.18074e-08
2	0	0	0	0	54.7577	-0.0392931	-0.0395154	-0.00033015	3	4.42e-06	1.3046e-08
2	0	0	0	0	54.8577	-0.0442933	-0.0444376	-0.000317663	3	4.38739e-06	1.41162e-08
2	0	0	0	0	54.9577	-0.0492934	-0.0495134	-0.000307533	3	4.35591e-06	1.5227e-08
2	0	0	0	0	55.0577	-0.0542935	-0.0545215	-0.000296968	3	4.32538e-06	1.61911e-08
2	0	0	0	0	55.1577	-0.0592937	-0.0594956	-0.000290676	3	4.2958e-06	1.7294e-08
2	0	0	0	0	55.2577	-0.0642938	-0.0645089	-0.000282187	3	4.26704e-06	1.82036e-08
2	0	0	0	0	55.3577	-0.0692939	-0.0694989	-0.000274613	3	4.23899e-06	1.90853e-08
2	0	0	0	0	55.4577	-0.074294	-0.0744995	-0.000267757	3	4.21163e-06	1.99478e-08
2	0	0	0	0	55.5577	-0.0792942	-0.0794821	-0.000262901	3	4.18488e-06	2.0896e-08
2	0	0	0	0	55.6577	-0.0842943	-0.0844965	-0.00025717	3	4.1587e-06	2.17299e-08
2	0	0	0	0	55.7577	-0.0892944	-0.0895035	-0.000252029	3	4.13304e-06	2.25575e-08
2	0	0	0	0	55.8577	-0.0942945	-0.0944977	-0.000247656	3	4.10784e-06	2.34029e-08
2	0	0	1	0	55.9579	-0.0992947	-0.0994941	-0.000244635	3	4.08304e-06	2.43398e-08
2	0	0	1	0	56.0579	-0.104295	-0.104494	-0.000239062	3	4.0587e-06	2.49805e-08
2	0	0	1	0	56.1579	-0.109295	-0.109443	-0.00023448	3	4.03474e-06	2.56623e-08
2	0	0	1	0	56.2579	-0.114295	-0.114511	-0.00023174	3	4.01113e-06	2.65368e-08
2	0	0	1	0	56.3579	-0.119295	-0.119494	-0.000229093	3	3.98784e-06	2.73753e-08
2	0	0	1	0	56.4579	-0.124295	-0.124496	-0.000227294	3	3.96486e-06	2.82973e-08
2	0	0	1	0	56.5579	-0.129295	-0.129513	-0.0002234	3	3.94217e-06	2.89331e-08
2	0	0	1	0	56.6579	-0.134296	-0.134492	-0.000221207	3	3.91975e-06	2.97506e-08
2	0	0	1	0	56.7579	-0.139296	-0.139496	-0.000218171	3	3.89757e-06	3.04339e-08
2	0	0	1	0	56.8579	-0.144296	-0.14449	-0.000215852	3	3.87561e-06	3.11884e-08
2	0	0	1	0	56.9579	-0.149296	-0.149482	-0.000214958	3	3.85387e-06	3.21324e-08
2	0	0	1	0	57.0579	-0.154296	-0.154475	-0.00021257	3	3.83231e-06	3.28368e-08
2	0	0	1	0	57.1579	-0.159296	-0.159515	-0.000212079	3	3.81089e-06	3.38298e-08
2	0	0	1	0	57.2579	-0.164296	-0.164497	-0.000209215	3	3.78964e-06	3.44152e-08
2	0	0	1	0	57.3579	-0.169296	-0.16945	-0.00020824	3	3.76851e-06	3.52862e-08
2	0	0	1	0	57.4579	-0.174297	-0.174514	-0.000207887	3	3.74749e-06	3.62792e-08
2	0	0	1	0	57.5579	-0.179297	-0.179466	-0.000206592	3	3.72657e-06	3.70762e-08
2	0	0	1	0	57.6579	-0.184297	-0.184468	-0.000206225	3	3.70571e-06	3.8042e-08
2	0	0	1	0	57.7579	-0.189297	-0.18948	-0.000205117	3	3.68489e-06	3.88656e-08
2	0	0	1	0	57.8579	-0.194297	-0.194486	-0.000205423	3	3.66411e-06	3.99518e-08
2	0	0	1	0	57.9579	-0.199297	-0.199502	-0.000205137	3	3.64333e-06	4.09252e-08
2	1	0	0	1	58.0373	-0.196747	-0.196928	-9.473e-05	3	3.63369e-06	1.8655e-08
2	1	0	0	1	58.1373	-0.191747	-0.19193	-7.84509e-05	3	3.62543e-06	1.5057e-08
2	1	0	0	1	58.2373	-0.186747	-0.186925	-6.82641e-05	3	3.61844e-06	1.27602e-08
2	1	0	0	1	58.3373	-0.181747	-0.181911	-6.096e-05	3	3.61236e-06	1.10893e-08
2	1	0	0	1	58.4373	-0.176747	-0.176902	-5.40075e-05	3	3.607e-06	9.55404e-09
2	1	0	0	1	58.5373	-0.171747	-0.171905	-4.87895e-05	3	3.60224e-06	8.38716e-09
2	1	0	0	1	58.6373	-0.166746	-0.166904	-4.45378e-05	3	3.598e-06	7.43355e-09
2	1	0	0	1	58.7373	-0.161746	-0.161973	-3.7845e-05	3	3.59422e-06	6.12984e-09
2	1	0	0	1	58.8373	-0.156746	-0.156939	-3.5183e-05	3	3.59084e-06	5.52159e-09
2	1	0	0	1	58.9373	-0.151746	-0.151834	-3.28849e-05	3	3.58786e-06	4.99303e-09
2	1	0	0	1	59.0373	-0.146746	-0.146906	-2.77747e-05	3	3.5852e-06	4.08028e-09
2	1	0	0	1	59.1373	-0.141746	-0.141875	-2.47683e-05	3	3.58285e-06	3.514e-09
2	1	0	0	1	59.2373	-0.136746	-0.136889	-2.155e-05	3	3.58079e-06	2.94995e-09
2	1	0	0	1	59.3373	-0.131746	-0.131906	-2.04689e-05	3	3.57901e-06	2.69998e-09
2	1	0	0	1	59.4373	-0.126745	-0.12689	-1.66818e-05	3	3.5775e-06	2.11675e-09
2	1	0	0	1	59.5373	-0.121745	-0.121897	-1.46751e-05	3	3.57622e-06	1.78885e-09
2	1	0	0	1	59.6373	-0.116745	-0.11688	-1.33733e-05	3	3.57517e-06	1.56307e-09
2	1	0	0	1	59.7373	-0.111745	-0.111914	-1.0593e-05	3	3.57436e-06	1.18551e-09
2	1	0	0	1	59.8373	-0.106745	-0.106847	-1.054e-05	3	3.57375e-06	1.12617e-09
2	1	0	0	1	59.9373	-0.101745	-0.101874	-6.14168e-06	3	3.57334e-06	6.25678e-10
2	1	0	1	1	60.0375	-0.0967446	-0.0969084	-5.09068e-06	3	3.57311e-06	4.9333e-10
2	1	0	1	1	60.1375	-0.0917445	-0.0918623	-3.98845e-06	3	3.57307e-06	3.66388e-10
2	1	0	1	1	60.2375	-0.0867444	-0.0869454	-8.31897e-07	3	3.57321e-06	7.23296e-11
2	1	0	1	1	60.3375	-0.0817442	-0.0819427	1.60396e-06	3	3.57352e-06	-1.31433e-10
2	1	0	1	1	60.4375	-0.0767441	-0.0768774	1.17649e-06	3	3.57398e-06	-9.04458e-11
2	1	0	1	1	60.5375	-0.071744	-0.071898	4.73755e-06	3	3.57459e-06	-3.4062e-10
2	1	0	1	1	60.6375	-0.0667439	-0.0669429	5.00427e-06	3	3.57536e-06	-3.35001e-10
2	1	0	0	1	60.6552	-0.0658188	-0.065975	-7.68728e-06	3	3.57551e-06	5.07169e-10