File: AutoAnalysis Examples/EC/C003C-5ppb-B_C01.mpt
EC-Lab ASCII FILE
Nb header lines : 59

Cyclic Voltammetry

Run on channel : 1 (SN 22398)
User :
CE vs. WE compliance from -10 V to 10 V
Electrode connection : standard
Ewe ctrl range : min = -1.00 V, max = 1.00 V
Safety Limits :
	Ewe min = -2.00 V
	Ewe max = 2.00 V
	|I| = 50.000 mA
	for t > 10 ms
Acquisition started on : 11/21/2018 11:25:53
Technique started on : 11/21/2018 11:25:53
Saved on :
	File : C003C-5ppb-B_C01.mpr
	Directory : \\ECCOMPUTER\Users\Lab User\Google Drive\Electrochemical Data\EC-Lab\Data\FREDsense\Tim\2018.11.21 - EC comparison to High Throughput\
	Host : 172.16.1.30
Device : SP-50 (SN 0301030103010301)
Address : USB
EC-Lab for windows v11.02 (software)
Internet server v11.02 (firmware)
Command interpretor v11.02 (firmware)
Electrode material : Au/Pd
Initial state :
Electrolyte : NaCl (0.2M)
Comments : Fe(CN)63-/Fe(CN)64- 5.10-3 M
Reference electrode : SCE Saturated Calomel Electrode (0.241 V)
Electrode surface area : 0.001 cm²
Characteristic mass : 0.001 g
Equivalent Weight : 0.000 g/eq.
Density : 0.000 g/cm3
Cycle Definition : Charge/Discharge alternance
Ei (V)              -0.100
vs.                 Ref
dE/dt               50.000
dE/dt unit          mV/s
E1 (V)              0.300
vs.                 Ref
Step percent        50
N                   10
E range min (V)     -1.000
E range max (V)     1.000
I Range             Auto
I Range min         Unset
I Range max         Unset
I Range init        Unset
Bandwidth           5
E2 (V)              -0.200
vs.                 Ref
nc cycles           2
Reverse Scan        1
Ef (V)              0.000
vs.                 Eoc

mode	ox/red	error	control changes	counter inc.	time/s	control/V	Ewe/V	<I>/mA	cycle number	(Q-Qo)/C	P/W
2	1	0	1	0	0.000000000000000E+000	-0.0984851	-0.0987584	-2.34559e-05	1	0.0000000E+000	2.31647e-09
2	1	0	0	0	0.111	-0.0929349	-0.0932227	1.24256e-06	1	3.11824e-10	-1.15834e-10
2	1	0	1	0	0.2265	-0.0871597	-0.0874013	3.66086e-05	1	3.13324e-09	-3.19964e-09
2	1	0	1	0	0.3265	-0.0821595	-0.0823732	4.07579e-05	1	7.31906e-09	-3.35736e-09
2	1	0	1	0	0.4265	-0.0771593	-0.0773503	4.40346e-05	1	1.19113e-08	-3.40609e-09
2	1	0	1	0	0.5265	-0.0721591	-0.0723751	4.73377e-05	1	1.679e-08	-3.42607e-09
2	1	0	1	0	0.6265	-0.0671589	-0.067419	5.01198e-05	1	2.19225e-08	-3.37903e-09
2	1	0	1	0	0.7265	-0.0621587	-0.0623601	5.10489e-05	1	2.72992e-08	-3.18342e-09
2	1	0	1	0	0.8265	-0.0571585	-0.0573489	5.3831e-05	1	3.28834e-08	-3.08715e-09
2	1	0	1	0	0.9265	-0.0521583	-0.0523451	5.8625e-05	1	3.86938e-08	-3.06873e-09
2	1	0	1	0	1.0265	-0.0471581	-0.047336	5.92097e-05	1	4.47398e-08	-2.80275e-09
2	1	0	1	0	1.1265	-0.0421579	-0.0423333	6.10008e-05	1	5.10237e-08	-2.58237e-09
2	1	0	1	0	1.2265	-0.0371577	-0.0373475	6.49186e-05	1	5.76166e-08	-2.42455e-09
2	1	0	1	0	1.3265	-0.0321575	-0.0323671	6.73739e-05	1	6.45343e-08	-2.1807e-09
2	1	0	1	0	1.4265	-0.0271573	-0.0273251	7.0905e-05	1	7.18702e-08	-1.93749e-09
2	1	0	1	0	1.5265	-0.022157	-0.0223129	7.91099e-05	1	7.97313e-08	-1.76517e-09
2	1	0	1	0	1.6265	-0.0171568	-0.0173684	8.48153e-05	1	8.82561e-08	-1.47311e-09
2	1	0	1	0	1.7265	-0.0121566	-0.0123424	9.68304e-05	1	9.76511e-08	-1.19512e-09
2	1	0	1	0	1.8265	-0.00715643	-0.00735131	0.000109183	1	1.08193e-07	-8.02637e-10
2	1	0	1	0	1.9265	-0.00215623	-0.00237615	0.00012587	1	1.20258e-07	-2.99085e-10
2	1	0	1	0	2.0265	0.00284397	0.00265945	0.000149994	1	1.34458e-07	3.989e-10
2	1	0	1	0	2.1265	0.00784417	0.00767065	0.000181842	1	1.51359e-07	1.39484e-09
2	1	0	1	0	2.2265	0.0128444	0.0126543	0.00022166	1	1.71905e-07	2.80495e-09
2	1	0	1	0	2.3265	0.0178446	0.0176867	0.000277591	1	1.97273e-07	4.90967e-09
2	1	0	1	0	2.4265	0.0228448	0.0226884	0.000349208	1	2.28917e-07	7.92296e-09
2	1	0	1	0	2.5265	0.027845	0.0277356	0.000438231	1	2.68606e-07	1.21546e-08
2	1	0	1	0	2.6265	0.0328452	0.0326928	0.00054999	1	3.18321e-07	1.79807e-08
2	1	0	1	0	2.7265	0.0378454	0.0376308	0.000684235	1	3.80268e-07	2.57483e-08
2	1	0	1	0	2.8265	0.0428456	0.0427109	0.000839667	1	4.56709e-07	3.5863e-08
2	1	0	1	0	2.9265	0.0478458	0.0476564	0.00101124	1	5.49618e-07	4.81923e-08
2	1	0	1	0	3.0265	0.052846	0.0526793	0.0012003	1	6.60676e-07	6.32309e-08
2	1	0	1	0	3.1265	0.0578462	0.0576937	0.00138798	1	7.90519e-07	8.00777e-08
2	1	0	1	0	3.2265	0.0628464	0.0626678	0.00156787	1	9.38913e-07	9.82551e-08
2	1	0	1	0	3.3265	0.0678466	0.0676822	0.00173235	1	1.10458e-06	1.17249e-07
2	1	0	1	0	3.4265	0.0728468	0.0726552	0.00186601	1	1.28516e-06	1.35575e-07
2	1	0	1	0	3.5265	0.077847	0.0777523	0.00196864	1	1.4776e-06	1.53067e-07
2	1	0	1	0	3.6265	0.0828472	0.082685	0.00203456	1	1.67841e-06	1.68228e-07
2	1	0	1	0	3.7265	0.0878474	0.0876782	0.00206597	1	1.88412e-06	1.8114e-07
2	1	0	1	0	3.8265	0.0928476	0.0926873	0.00207199	1	2.09163e-06	1.92047e-07
2	1	0	1	0	3.9265	0.0978478	0.0977229	0.00205167	1	2.2983e-06	2.00495e-07
2	1	0	1	0	4.0265	0.102848	0.102699	0.00201582	1	2.50213e-06	2.07023e-07
2	1	0	1	0	4.1265	0.107848	0.107683	0.00196997	1	2.70182e-06	2.12132e-07
2	1	0	1	0	4.2265	0.112848	0.112666	0.00191796	1	2.89649e-06	2.16089e-07
2	1	0	1	0	4.3265	0.117849	0.117702	0.00186134	1	3.08574e-06	2.19083e-07
2	1	0	1	0	4.4265	0.122849	0.122685	0.00180451	1	3.26938e-06	2.21385e-07
2	1	0	1	0	4.5265	0.127849	0.127685	0.0017511	1	3.44744e-06	2.23589e-07
2	1	0	1	0	4.6265	0.132849	0.13265	0.00169752	1	3.62013e-06	2.25175e-07
2	1	0	1	0	4.7265	0.137849	0.137684	0.00164804	1	3.78768e-06	2.26909e-07
2	1	0	1	0	4.8265	0.14285	0.142738	0.00160293	1	3.95043e-06	2.28799e-07
2	1	0	0	0	4.9267	0.14785	0.147648	0.00155755	1	4.10895e-06	2.2997e-07
2	1	0	0	0	5.0267	0.15285	0.152699	0.00151985	1	4.263e-06	2.3208e-07
2	1	0	0	0	5.1267	0.15785	0.1577	0.00147947	1	4.41318e-06	2.33313e-07
2	1	0	0	0	5.2267	0.16285	0.162665	0.0014449	1	4.55973e-06	2.35034e-07
2	1	0	0	0	5.3267	0.167851	0.167711	0.00141328	1	4.70296e-06	2.37023e-07
2	1	0	0	0	5.4267	0.172851	0.172704	0.00138221	1	4.84304e-06	2.38714e-07
2	1	0	0	0	5.5267	0.177851	0.17764	0.00135359	1	4.98021e-06	2.40453e-07
2	1	0	0	0	5.6267	0.182851	0.182695	0.00132682	1	5.11468e-06	2.42403e-07
2	1	0	0	0	5.7267	0.187851	0.187708	0.00130426	1	5.24663e-06	2.44821e-07
2	1	0	0	0	5.8267	0.192852	0.192666	0.00128364	1	5.37624e-06	2.47314e-07
2	1	0	0	0	5.9267	0.197852	0.197737	0.00126045	1	5.5037e-06	2.49238e-07
2	1	0	0	0	6.0267	0.202852	0.202702	0.00124273	1	5.62919e-06	2.51903e-07
2	1	0	0	0	6.1267	0.207852	0.207673	0.00122589	1	5.75284e-06	2.54584e-07
2	1	0	0	0	6.2267	0.212852	0.21272	0.0012078	1	5.87479e-06	2.56923e-07
2	1	0	0	0	6.3267	0.217853	0.217742	0.00119196	1	5.99513e-06	2.5954e-07
2	1	0	0	0	6.4267	0.222853	0.222692	0.0011768	1	6.11399e-06	2.62065e-07
2	1	0	0	0	6.5267	0.227853	0.227685	0.00116552	1	6.23142e-06	2.65371e-07
2	1	0	0	0	6.6267	0.232853	0.232741	0.00114982	1	6.34755e-06	2.67612e-07
2	1	0	0	0	6.7267	0.237853	0.237687	0.00113901	1	6.46242e-06	2.70729e-07
2	1	0	0	0	6.8267	0.242854	0.242727	0.00112801	1	6.57611e-06	2.73799e-07
2	1	0	0	0	6.9267	0.247854	0.247675	0.00111858	1	6.68871e-06	2.77044e-07
2	1	0	0	0	7.0267	0.252854	0.252734	0.00110826	1	6.80028e-06	2.80095e-07
2	1	0	0	0	7.1267	0.257854	0.257722	0.00110013	1	6.91095e-06	2.83527e-07
2	1	0	0	0	7.2267	0.262854	0.262656	0.00109062	1	7.02069e-06	2.86457e-07
2	1	0	0	0	7.3267	0.267855	0.267688	0.0010838	1	7.12962e-06	2.90122e-07
2	1	0	0	0	7.4267	0.272855	0.272669	0.00107594	1	7.23779e-06	2.93374e-07
2	1	0	0	0	7.5267	0.277855	0.277665	0.00106768	1	7.34526e-06	2.96457e-07
2	1	0	0	0	7.6267	0.282855	0.282708	0.00106337	1	7.45211e-06	3.00624e-07
2	1	0	0	0	7.7267	0.287855	0.287695	0.00105714	1	7.55841e-06	3.04135e-07
2	1	0	0	0	7.8267	0.292856	0.292651	0.00105522	1	7.66425e-06	3.08812e-07
2	1	0	0	0	7.9267	0.297856	0.297638	0.00105306	1	7.76987e-06	3.13431e-07
2	0	0	1	0	8.0153	0.297706	0.297507	0.000928987	1	7.85826e-06	2.7638e-07
2	0	0	1	0	8.1153	0.292706	0.292519	0.00088107	1	7.94836e-06	2.57729e-07
2	0	0	1	0	8.2153	0.287705	0.28752	0.000847708	1	8.03447e-06	2.43733e-07
2	0	0	1	0	8.3153	0.282705	0.282482	0.000822045	1	8.11766e-06	2.32213e-07
2	0	0	1	0	8.4153	0.277705	0.277527	0.000801492	1	8.19854e-06	2.22436e-07
2	0	0	1	0	8.5153	0.272705	0.272528	0.000782298	1	8.27745e-06	2.13198e-07
2	0	0	1	0	8.6153	0.267705	0.267589	0.000764109	1	8.35462e-06	2.04467e-07
2	0	0	1	0	8.7153	0.262704	0.26253	0.000752211	1	8.4302e-06	1.97478e-07
2	0	0	1	0	8.8153	0.257704	0.257521	0.000738189	1	8.50435e-06	1.90099e-07
2	0	0	1	0	8.9153	0.252704	0.252511	0.000724427	1	8.57714e-06	1.82926e-07
2	0	0	1	0	9.0153	0.247704	0.247476	0.000712739	1	8.64871e-06	1.76386e-07
2	0	0	1	0	9.1153	0.242704	0.242439	0.000701876	1	8.71912e-06	1.70162e-07
2	0	0	1	0	9.2153	0.237703	0.237495	0.000692348	1	8.78843e-06	1.64429e-07
2	0	0	1	0	9.3153	0.232703	0.232546	0.000680872	1	8.85669e-06	1.58334e-07
2	0	0	1	0	9.4153	0.227703	0.227476	0.000671215	1	8.92395e-06	1.52685e-07
2	0	0	1	0	9.5153	0.222703	0.222531	0.000661401	1	8.99023e-06	1.47182e-07
2	0	0	1	0	9.6153	0.217703	0.217478	0.000652539	1	9.05556e-06	1.41913e-07
2	0	0	1	0	9.7153	0.212702	0.212517	0.000642467	1	9.11993e-06	1.36535e-07
2	0	0	1	0	9.8153	0.207702	0.207463	0.000631707	1	9.1834e-06	1.31056e-07
2	0	0	1	0	9.9153	0.202702	0.202485	0.000624006	1	9.24589e-06	1.26352e-07
2	0	0	1	0	10.0153	0.197702	0.197507	0.000614596	1	9.30749e-06	1.21387e-07
2	0	0	1	0	10.1153	0.192702	0.192485	0.000604673	1	9.36822e-06	1.16391e-07
2	0	0	1	0	10.2153	0.187701	0.187494	0.000597339	1	9.42803e-06	1.11998e-07
2	0	0	1	0	10.3153	0.182701	0.182434	0.000586966	1	9.48692e-06	1.07083e-07
2	0	0	1	0	10.4153	0.177701	0.177494	0.000578516	1	9.5449e-06	1.02683e-07
2	0	0	1	0	10.5153	0.172701	0.172497	0.000567179	1	9.60192e-06	9.78365e-08
2	0	0	1	0	10.6153	0.167701	0.167508	0.000557457	1	9.65793e-06	9.33783e-08
2	0	0	1	0	10.7153	0.1627	0.162473	0.000547063	1	9.71292e-06	8.88831e-08
2	0	0	1	0	10.8153	0.1577	0.157517	0.000537223	1	9.76687e-06	8.46218e-08
2	0	0	1	0	10.9153	0.1527	0.152488	0.000523081	1	9.8197e-06	7.97635e-08
2	0	0	1	0	11.0153	0.1477	0.147446	0.000512645	1	9.87132e-06	7.55875e-08
2	0	0	0	0	11.1155	0.1427	0.14245	0.000501031	1	9.9218e-06	7.13717e-08
2	0	0	0	0	11.2155	0.137699	0.137442	0.000485545	1	9.97076e-06	6.67341e-08
2	0	0	0	0	11.3155	0.132699	0.132507	0.000468545	1	1.00182e-05	6.20854e-08
2	0	0	0	0	11.4155	0.127699	0.127525	0.000450828	1	1.0064e-05	5.7492e-08
2	0	0	0	0	11.5155	0.122699	0.122482	0.000430531	1	1.01077e-05	5.27323e-08
2	0	0	0	0	11.6155	0.117699	0.11751	0.000408062	1	1.01493e-05	4.79515e-08
2	0	0	0	0	11.7155	0.112698	0.112508	0.00037733	1	1.01882e-05	4.24529e-08
2	0	0	0	0	11.8155	0.107698	0.107471	0.0003447	1	1.02241e-05	3.70452e-08
2	0	0	0	0	11.9155	0.102698	0.10246	0.000303684	1	1.02562e-05	3.11153e-08
2	0	0	0	0	12.0155	0.0976978	0.0975109	0.000254352	1	1.02838e-05	2.48021e-08
2	0	0	0	0	12.1155	0.0926976	0.0925209	0.000193634	1	1.0306e-05	1.79152e-08
2	0	0	0	0	12.2155	0.0876974	0.0875457	0.000119601	1	1.03215e-05	1.04706e-08
2	0	0	0	0	12.3155	0.0826972	0.0825175	3.0405e-05	1	1.03288e-05	2.50895e-09
2	0	0	0	0	12.4155	0.077697	0.0774958	-7.71526e-05	1	1.03262e-05	-5.979e-09
2	0	0	0	0	12.5155	0.0726968	0.0725079	-0.000205983	1	1.03118e-05	-1.49354e-08
2	0	0	0	0	12.6155	0.0676966	0.0674468	-0.000355556	1	1.02836e-05	-2.39811e-08
2	0	0	0	0	12.7155	0.0626964	0.062496	-0.000522975	1	1.02394e-05	-3.26839e-08
2	0	0	0	0	12.8155	0.0576962	0.0574679	-0.000706332	1	1.01776e-05	-4.05914e-08
2	0	0	0	0	12.9155	0.052696	0.0525033	-0.000896748	1	1.0097e-05	-4.70822e-08
2	0	0	0	0	13.0155	0.0476958	0.0474465	-0.00108661	1	9.99728e-06	-5.15557e-08
2	0	0	0	0	13.1155	0.0426956	0.0424745	-0.00125847	1	9.87951e-06	-5.34531e-08
2	0	0	0	0	13.2155	0.0376954	0.0374771	-0.00140332	1	9.74587e-06	-5.25922e-08
2	0	0	0	0	13.3155	0.0326952	0.0323981	-0.00151013	1	9.59957e-06	-4.89252e-08
2	0	0	0	0	13.4155	0.027695	0.0275172	-0.00157212	1	9.44471e-06	-4.32605e-08
2	0	0	0	0	13.5155	0.0226948	0.0224891	-0.00159877	1	9.28541e-06	-3.59549e-08
2	0	0	0	0	13.6155	0.0176946	0.0174545	-0.00158577	1	9.12562e-06	-2.76789e-08
2	0	0	0	0	13.7155	0.0126944	0.0124189	-0.00154645	1	8.96855e-06	-1.92053e-08
2	0	0	0	0	13.8155	0.00769417	0.00748725	-0.00148681	1	8.8165e-06	-1.11321e-08
2	0	0	0	0	13.9155	0.00269396	0.00249195	-0.00141638	1	8.67099e-06	-3.52954e-09
2	0	0	0	0	14.0155	-0.00230624	-0.00261467	-0.0013426	1	8.53268e-06	3.51045e-09
2	0	0	0	0	14.1155	-0.00730644	-0.00749125	-0.00126853	1	8.40186e-06	9.50289e-09
2	0	0	0	0	14.2155	-0.0123066	-0.0125099	-0.00119729	1	8.27837e-06	1.4978e-08
2	0	0	0	0	14.3155	-0.0173068	-0.0175434	-0.00112898	1	8.16179e-06	1.98061e-08
2	0	0	0	0	14.4155	-0.0223071	-0.0225206	-0.00106929	1	8.05165e-06	2.4081e-08
2	0	0	0	0	14.5155	-0.0273073	-0.0275255	-0.00101208	1	7.94742e-06	2.78579e-08
2	0	0	0	0	14.6155	-0.0323075	-0.032507	-0.000960061	1	7.84858e-06	3.12087e-08
2	0	0	0	0	14.7155	-0.0373077	-0.0375066	-0.000914783	1	7.7546e-06	3.43104e-08
2	0	0	0	0	14.8155	-0.0423079	-0.0425358	-0.000871637	1	7.66503e-06	3.70758e-08
2	0	0	0	0	14.9155	-0.0473081	-0.047564	-0.000835076	1	7.57946e-06	3.97195e-08
2	0	0	0	0	15.0155	-0.0523083	-0.0525646	-0.000801961	1	7.49751e-06	4.21548e-08
2	0	0	0	0	15.1155	-0.0573085	-0.0575493	-0.00076716	1	7.41884e-06	4.41495e-08
2	0	0	0	0	15.2155	-0.0623087	-0.062551	-0.000739934	1	7.34319e-06	4.62836e-08
2	0	0	0	0	15.3155	-0.0673089	-0.0675844	-0.000713617	1	7.27028e-06	4.82294e-08
2	0	0	0	0	15.4155	-0.0723091	-0.0725978	-0.000689592	1	7.19989e-06	5.00628e-08
2	0	0	0	0	15.5155	-0.0773093	-0.0775136	-0.000667682	1	7.13182e-06	5.17544e-08
2	0	0	0	0	15.6155	-0.0823095	-0.082582	-0.000646964	1	7.06588e-06	5.34276e-08
2	0	0	0	0	15.7155	-0.0873097	-0.0875561	-0.000627247	1	7.00192e-06	5.49193e-08
2	0	0	0	0	15.8155	-0.0923099	-0.0925302	-0.00061095	1	6.93978e-06	5.65314e-08
2	0	0	0	0	15.9155	-0.0973101	-0.0975255	-0.000593493	1	6.87934e-06	5.78807e-08
2	0	0	1	0	16.0157	-0.10231	-0.10253	-0.000578564	1	6.82038e-06	5.93203e-08
2	0	0	1	0	16.1157	-0.107311	-0.10749	-0.000565079	1	6.76301e-06	6.07401e-08
2	0	0	1	0	16.2157	-0.112311	-0.112587	-0.000551124	1	6.707e-06	6.20493e-08
2	0	0	1	0	16.3157	-0.117311	-0.117561	-0.000538521	1	6.65228e-06	6.3309e-08
2	0	0	1	0	16.4157	-0.122311	-0.122534	-0.00052678	1	6.59876e-06	6.45484e-08
2	0	0	1	0	16.5157	-0.127311	-0.127512	-0.000516794	1	6.54639e-06	6.58976e-08
2	0	0	1	0	16.6157	-0.132312	-0.132487	-0.000504675	1	6.49507e-06	6.68631e-08
2	0	0	1	0	16.7157	-0.137312	-0.137512	-0.000495396	1	6.44478e-06	6.81231e-08
2	0	0	1	0	16.8157	-0.142312	-0.142524	-0.000486538	1	6.39544e-06	6.93431e-08
2	0	0	1	0	16.9157	-0.147312	-0.147514	-0.000478329	1	6.34702e-06	7.05601e-08
2	0	0	1	0	17.0157	-0.152312	-0.152505	-0.000468708	1	6.29947e-06	7.14801e-08
2	0	0	1	0	17.1157	-0.157313	-0.15759	-0.000460694	1	6.25267e-06	7.26008e-08
2	0	0	1	0	17.2157	-0.162313	-0.162522	-0.00045488	1	6.20668e-06	7.3928e-08
2	0	0	1	0	17.3157	-0.167313	-0.16753	-0.000448348	1	6.16141e-06	7.51117e-08
2	0	0	1	0	17.4157	-0.172313	-0.172544	-0.000441502	1	6.11681e-06	7.61786e-08
2	0	0	1	0	17.5157	-0.177313	-0.177544	-0.00043432	1	6.07284e-06	7.71107e-08
2	0	0	1	0	17.6157	-0.182314	-0.182518	-0.000429499	1	6.02944e-06	7.83912e-08
2	0	0	1	0	17.7157	-0.187314	-0.1875	-0.000424437	1	5.98661e-06	7.9582e-08
2	0	0	1	0	17.8157	-0.192314	-0.192572	-0.000419404	1	5.94427e-06	8.07655e-08
2	0	0	1	0	17.9157	-0.197314	-0.197527	-0.000413298	1	5.90239e-06	8.16375e-08
2	1	0	0	1	18.0051	-0.198214	-0.198428	-0.000309285	1	5.86885e-06	6.13709e-08
2	1	0	0	1	18.1051	-0.193214	-0.19339	-0.000283307	1	5.83978e-06	5.47889e-08
2	1	0	0	1	18.2051	-0.188214	-0.188386	-0.000266033	1	5.81269e-06	5.01169e-08
2	1	0	0	1	18.3051	-0.183214	-0.183442	-0.000253102	1	5.78707e-06	4.64295e-08
2	1	0	0	1	18.4051	-0.178213	-0.178422	-0.000242146	1	5.76267e-06	4.32041e-08
2	1	0	0	1	18.5051	-0.173213	-0.173386	-0.000233871	1	5.73932e-06	4.05499e-08
2	1	0	0	1	18.6051	-0.168213	-0.168412	-0.000224728	1	5.71692e-06	3.78468e-08
2	1	0	0	1	18.7051	-0.163213	-0.16342	-0.00021413	1	5.69541e-06	3.4993e-08
2	1	0	0	1	18.8051	-0.158213	-0.158354	-0.00020664	1	5.6747e-06	3.27224e-08
2	1	0	0	1	18.9051	-0.153212	-0.153389	-0.000200611	1	5.65474e-06	3.07715e-08
2	1	0	0	1	19.0051	-0.148212	-0.148458	-0.000192892	1	5.63548e-06	2.86364e-08
2	1	0	0	1	19.1051	-0.143212	-0.143343	-0.000185922	1	5.61688e-06	2.66506e-08
2	1	0	0	1	19.2051	-0.138212	-0.138376	-0.000180261	1	5.59893e-06	2.49438e-08
2	1	0	0	1	19.3051	-0.133212	-0.133446	-0.00017514	1	5.58157e-06	2.33717e-08
2	1	0	0	1	19.4051	-0.128211	-0.128376	-0.000168488	1	5.56478e-06	2.16298e-08
2	1	0	0	1	19.5051	-0.123211	-0.123357	-0.000162957	1	5.54855e-06	2.01018e-08
2	1	0	0	1	19.6051	-0.118211	-0.118398	-0.000159456	1	5.53283e-06	1.88793e-08
2	1	0	0	1	19.7051	-0.113211	-0.113431	-0.000153291	1	5.51762e-06	1.73879e-08
2	1	0	0	1	19.8051	-0.108211	-0.108384	-0.000148351	1	5.50289e-06	1.60789e-08
2	1	0	0	1	19.9051	-0.10321	-0.103368	-0.000143891	1	5.48862e-06	1.48737e-08
2	1	0	1	1	20.0053	-0.0982101	-0.0983959	-0.000139625	2	5.47474e-06	1.37385e-08
2	1	0	1	1	20.1053	-0.09321	-0.0934144	-0.000136057	2	5.46133e-06	1.27096e-08
2	1	0	1	1	20.2053	-0.0882097	-0.0883788	-0.00013299	2	5.44836e-06	1.17535e-08
2	1	0	1	1	20.3053	-0.0832095	-0.0833845	-0.000127664	2	5.43576e-06	1.06452e-08
2	1	0	1	1	20.4053	-0.0782093	-0.078368	-0.000124791	2	5.42358e-06	9.77958e-09
2	1	0	1	1	20.5053	-0.0732091	-0.0734225	-0.000119673	2	5.4118e-06	8.78671e-09
2	1	0	1	1	20.6053	-0.0682089	-0.0684219	-0.000116845	2	5.4004e-06	7.99478e-09
2	1	0	1	1	20.7053	-0.0632087	-0.0634499	-0.00011146	2	5.38943e-06	7.0721e-09
2	1	0	1	1	20.8053	-0.0582085	-0.058409	-0.000107058	2	5.37885e-06	6.25313e-09
2	1	0	1	1	20.9053	-0.0532083	-0.0534042	-0.000102675	2	5.36869e-06	5.48329e-09
2	1	0	1	1	21.0053	-0.0482081	-0.0484205	-9.85772e-05	2	5.359e-06	4.77316e-09
2	1	0	1	1	21.1053	-0.0432079	-0.0433436	-9.39969e-05	2	5.34976e-06	4.07417e-09
2	1	0	1	1	21.2053	-0.0382077	-0.0384342	-8.84345e-05	2	5.34104e-06	3.39891e-09
2	1	0	1	1	21.3053	-0.0332075	-0.0334293	-8.29216e-05	2	5.33289e-06	2.77201e-09
2	1	0	1	1	21.4053	-0.0282073	-0.0283863	-7.4367e-05	2	5.3254e-06	2.111e-09
2	1	0	1	1	21.5053	-0.0232071	-0.0234323	-6.78719e-05	2	5.31869e-06	1.5904e-09
2	1	0	1	1	21.6053	-0.0182069	-0.0184052	-5.68955e-05	2	5.31289e-06	1.04718e-09
2	1	0	1	1	21.7053	-0.0132067	-0.0134248	-4.46138e-05	2	5.3082e-06	5.9893e-10
2	1	0	1	1	21.8053	-0.00820648	-0.00838493	-2.87904e-05	2	5.30491e-06	2.41406e-10
2	1	0	1	1	21.9053	-0.00320627	-0.00340023	-8.17304e-06	2	5.30336e-06	2.77902e-11
2	1	0	1	1	22.0053	0.00179393	0.00166929	1.53465e-05	2	5.30414e-06	2.56178e-11
2	1	0	1	1	22.1053	0.00679413	0.00654162	4.88268e-05	2	5.30776e-06	3.19406e-10
2	1	0	1	1	22.2053	0.0117943	0.0116705	9.2561e-05	2	5.31509e-06	1.08023e-09
2	1	0	1	1	22.3053	0.0167945	0.0166054	0.000143901	2	5.32716e-06	2.38954e-09
2	1	0	1	1	22.4053	0.0217947	0.021607	0.000211685	2	5.34527e-06	4.57389e-09
2	1	0	1	1	22.5053	0.0267949	0.0266193	0.000297069	2	5.37095e-06	7.90777e-09
2	1	0	1	1	22.6053	0.0317951	0.0316772	0.000399006	2	5.40593e-06	1.26394e-08
2	1	0	1	1	22.7053	0.0367953	0.0366184	0.000521302	2	5.45214e-06	1.90893e-08
2	1	0	1	1	22.8053	0.0417955	0.0415872	0.000661687	2	5.51159e-06	2.75177e-08
2	1	0	1	1	22.9053	0.0467957	0.0466302	0.000820906	2	5.58608e-06	3.8279e-08
2	1	0	1	1	23.0053	0.0517959	0.0516944	0.0009945	2	5.67717e-06	5.14101e-08
2	1	0	1	1	23.1053	0.0567961	0.0566548	0.00117133	2	5.78583e-06	6.63614e-08
2	1	0	1	1	23.2053	0.0617963	0.0616151	0.00134512	2	5.91209e-06	8.288e-08
2	1	0	1	1	23.3053	0.0667965	0.0666093	0.00150707	2	6.05529e-06	1.00385e-07
2	1	0	1	1	23.4053	0.0717967	0.0715781	0.00164964	2	6.2137e-06	1.18078e-07
2	1	0	1	1	23.5053	0.0767969	0.0766445	0.00176307	2	6.38489e-06	1.3513e-07
2	1	0	1	1	23.6053	0.0817971	0.0816695	0.00184427	2	6.56592e-06	1.5062e-07
2	1	0	1	1	23.7053	0.0867973	0.086599	0.00189574	2	6.75358e-06	1.64169e-07
2	1	0	1	1	23.8053	0.0917976	0.0916558	0.00191611	2	6.94482e-06	1.75623e-07
2	1	0	1	1	23.9053	0.0967978	0.0966066	0.00191522	2	7.13685e-06	1.85023e-07
2	1	0	1	1	24.0053	0.101798	0.101574	0.00189046	2	7.32747e-06	1.92022e-07
2	1	0	1	1	24.1053	0.106798	0.106687	0.0018528	2	7.51498e-06	1.97671e-07
2	1	0	1	1	24.2053	0.111798	0.111619	0.00180515	2	7.69825e-06	2.0149e-07
2	1	0	1	1	24.3053	0.116799	0.116651	0.00175406	2	7.87657e-06	2.04614e-07
2	1	0	1	1	24.4053	0.121799	0.121612	0.00169917	2	8.04954e-06	2.06638e-07
2	1	0	1	1	24.5053	0.126799	0.126624	0.00164408	2	8.21707e-06	2.0818e-07
2	1	0	1	1	24.6053	0.131799	0.131531	0.00159219	2	8.37923e-06	2.09423e-07
2	1	0	1	1	24.7053	0.136799	0.136635	0.00154018	2	8.53618e-06	2.10443e-07
2	1	0	1	1	24.8053	0.1418	0.141637	0.00149263	2	8.68818e-06	2.11413e-07
2	1	0	1	1	24.9053	0.1468	0.146665	0.0014475	2	8.83551e-06	2.12297e-07
2	1	0	0	1	25.0055	0.1518	0.151628	0.00140493	2	8.97875e-06	2.13027e-07
2	1	0	0	1	25.1055	0.1568	0.156621	0.00136518	2	9.1177e-06	2.13817e-07
2	1	0	0	1	25.2055	0.1618	0.161634	0.00132944	2	9.25285e-06	2.14881e-07
2	1	0	0	1	25.3055	0.166801	0.166679	0.00129553	2	9.38449e-06	2.15937e-07
2	1	0	0	1	25.4055	0.171801	0.171624	0.0012649	2	9.51287e-06	2.17088e-07
2	1	0	0	1	25.5055	0.176801	0.176636	0.00123455	2	9.6382e-06	2.18067e-07
2	1	0	0	1	25.6055	0.181801	0.18158	0.00120717	2	9.7607e-06	2.19197e-07
2	1	0	0	1	25.7055	0.186801	0.186612	0.0011804	2	9.88057e-06	2.20277e-07
2	1	0	0	1	25.8055	0.191802	0.191646	0.00116007	2	9.99799e-06	2.22322e-07
2	1	0	0	1	25.9055	0.196802	0.196646	0.00113679	2	1.01131e-05	2.23545e-07
2	1	0	0	1	26.0055	0.201802	0.201652	0.00111827	2	1.02262e-05	2.25501e-07
2	1	0	0	1	26.1055	0.206802	0.20666	0.00109635	2	1.03373e-05	2.26572e-07
2	1	0	0	1	26.2055	0.211802	0.211624	0.00108156	2	1.04466e-05	2.28884e-07
2	1	0	0	1	26.3055	0.216803	0.21662	0.0010661	2	1.05543e-05	2.30939e-07
2	1	0	0	1	26.4055	0.221803	0.221625	0.00104882	2	1.06603e-05	2.32445e-07
2	1	0	0	1	26.5055	0.226803	0.226584	0.00103505	2	1.07649e-05	2.34525e-07
2	1	0	0	1	26.6055	0.231803	0.231621	0.00102216	2	1.08681e-05	2.36754e-07
2	1	0	0	1	26.7055	0.236803	0.236621	0.00100892	2	1.09699e-05	2.38732e-07
2	1	0	0	1	26.8055	0.241804	0.241565	0.000996284	2	1.10705e-05	2.40667e-07
2	1	0	0	1	26.9055	0.246804	0.246612	0.00098339	2	1.11699e-05	2.42516e-07
2	1	0	0	1	27.0055	0.251804	0.25162	0.000974701	2	1.12682e-05	2.45254e-07
2	1	0	0	1	27.1055	0.256804	0.256653	0.000966019	2	1.13655e-05	2.47931e-07
2	1	0	0	1	27.2055	0.261804	0.261679	0.000954928	2	1.14619e-05	2.49884e-07
2	1	0	0	1	27.3055	0.266805	0.266639	0.000949448	2	1.15574e-05	2.5316e-07
2	1	0	0	1	27.4055	0.271805	0.271676	0.000940207	2	1.16522e-05	2.55431e-07
2	1	0	0	1	27.5055	0.276805	0.276652	0.000935409	2	1.17463e-05	2.58783e-07
2	1	0	0	1	27.6055	0.281805	0.281639	0.000928746	2	1.18397e-05	2.61571e-07
2	1	0	0	1	27.7055	0.286805	0.286642	0.000923172	2	1.19326e-05	2.6462e-07
2	1	0	0	1	27.8055	0.291806	0.291643	0.00091984	2	1.20251e-05	2.68265e-07
2	1	0	0	1	27.9055	0.296806	0.296602	0.000914082	2	1.21171e-05	2.71119e-07
2	0	0	0	1	27.9951	0.298706	0.298538	0.000809608	2	1.21967e-05	2.41699e-07
2	0	0	0	1	28.0951	0.293706	0.293532	0.000770154	2	1.22752e-05	2.26065e-07
2	0	0	0	1	28.1951	0.288705	0.288539	0.000744328	2	1.23505e-05	2.14767e-07
2	0	0	0	1	28.2951	0.283705	0.283519	0.000723387	2	1.24236e-05	2.05094e-07
2	0	0	0	1	28.3951	0.278705	0.278545	0.000705592	2	1.24947e-05	1.96539e-07
2	0	0	0	1	28.4951	0.273705	0.273497	0.000690354	2	1.25642e-05	1.88809e-07
2	0	0	0	1	28.5951	0.268705	0.268528	0.000676293	2	1.26322e-05	1.81604e-07
2	0	0	0	1	28.6951	0.263704	0.263558	0.000663344	2	1.2699e-05	1.7483e-07
2	0	0	0	1	28.7951	0.258704	0.258526	0.000652657	2	1.27645e-05	1.68729e-07
2	0	0	0	1	28.8951	0.253704	0.253515	0.000639642	2	1.28288e-05	1.62159e-07
2	0	0	0	1	28.9951	0.248704	0.248505	0.000629609	2	1.28922e-05	1.56461e-07
2	0	0	0	1	29.0951	0.243704	0.243485	0.000620136	2	1.29545e-05	1.50994e-07
2	0	0	0	1	29.1951	0.238703	0.238532	0.000611641	2	1.30158e-05	1.45896e-07
2	0	0	0	1	29.2951	0.233703	0.233533	0.000603438	2	1.30763e-05	1.40923e-07
2	0	0	0	1	29.3951	0.228703	0.228471	0.000594018	2	1.31358e-05	1.35716e-07
2	0	0	0	1	29.4951	0.223703	0.223493	0.00058599	2	1.31945e-05	1.30964e-07
2	0	0	0	1	29.5951	0.218703	0.218485	0.00057776	2	1.32523e-05	1.26232e-07
2	0	0	0	1	29.6951	0.213702	0.213507	0.000568889	2	1.33093e-05	1.21462e-07
2	0	0	0	1	29.7951	0.208702	0.208485	0.000559628	2	1.33655e-05	1.16674e-07
2	0	0	0	1	29.8951	0.203702	0.203449	0.000552057	2	1.34209e-05	1.12316e-07
2	0	0	0	1	29.9951	0.198702	0.198509	0.000543898	2	1.34754e-05	1.07969e-07
2	0	0	0	1	30.0951	0.193702	0.193488	0.000535854	2	1.35292e-05	1.03681e-07
2	0	0	0	1	30.1951	0.188701	0.188535	0.00052781	2	1.35821e-05	9.95108e-08
2	0	0	0	1	30.2951	0.183701	0.18348	0.000520495	2	1.36341e-05	9.55002e-08
2	0	0	0	1	30.3951	0.178701	0.17856	0.000510995	2	1.36853e-05	9.12431e-08
2	0	0	0	1	30.4951	0.173701	0.173454	0.000501469	2	1.37357e-05	8.69818e-08
2	0	0	0	1	30.5951	0.168701	0.168534	0.000494137	2	1.37851e-05	8.32788e-08
2	0	0	0	1	30.6951	0.1637	0.163474	0.000483373	2	1.38336e-05	7.90188e-08
2	0	0	0	1	30.7951	0.1587	0.158486	0.000473769	2	1.38812e-05	7.50857e-08
2	0	0	0	1	30.8951	0.1537	0.15352	0.000463875	2	1.39277e-05	7.12143e-08
2	0	0	0	1	30.9951	0.1487	0.148481	0.000451056	2	1.39732e-05	6.69731e-08
2	0	0	1	1	31.0953	0.1437	0.143517	0.000440449	2	1.40175e-05	6.3212e-08
2	0	0	1	1	31.1953	0.138699	0.138523	0.000426555	2	1.40606e-05	5.90876e-08
2	0	0	1	1	31.2953	0.133699	0.133455	0.000411883	2	1.41022e-05	5.4968e-08
2	0	0	1	1	31.3953	0.128699	0.128497	0.000395284	2	1.41422e-05	5.07929e-08
2	0	0	1	1	31.4953	0.123699	0.123491	0.000377721	2	1.41805e-05	4.66453e-08
2	0	0	1	1	31.5953	0.118699	0.118402	0.000355477	2	1.42168e-05	4.2089e-08
2	0	0	1	1	31.6953	0.113698	0.113475	0.000327264	2	1.42506e-05	3.71364e-08
2	0	0	1	1	31.7953	0.108698	0.108481	0.00029717	2	1.42816e-05	3.22373e-08
2	0	0	1	1	31.8953	0.103698	0.103502	0.000260411	2	1.43093e-05	2.6953e-08
2	0	0	1	1	31.9953	0.0986978	0.0985223	0.000215484	2	1.43329e-05	2.123e-08
2	0	0	1	1	32.0953	0.0936976	0.0934612	0.000161132	2	1.43515e-05	1.50596e-08
2	0	0	1	1	32.1953	0.0886974	0.088502	9.29902e-05	2	1.4364e-05	8.22982e-09
2	0	0	1	1	32.2953	0.0836972	0.0835236	1.20575e-05	2	1.43691e-05	1.00709e-09
2	0	0	1	1	32.3953	0.078697	0.0784997	-8.63237e-05	2	1.43652e-05	-6.77638e-09
2	0	0	1	1	32.4953	0.0736968	0.0734948	-0.000205112	2	1.43504e-05	-1.50747e-08
2	0	0	1	1	32.5953	0.0686966	0.0684836	-0.000343622	2	1.43228e-05	-2.35325e-08
2	0	0	1	1	32.6953	0.0636964	0.0634618	-0.000501084	2	1.42804e-05	-3.17997e-08
2	0	0	1	1	32.7953	0.0586962	0.0585407	-0.000674703	2	1.42213e-05	-3.94976e-08
2	0	0	1	1	32.8953	0.053696	0.0535189	-0.000860957	2	1.41442e-05	-4.60775e-08
2	0	0	1	1	32.9953	0.0486958	0.0484939	-0.0010503	2	1.40483e-05	-5.09334e-08
2	0	0	1	1	33.0953	0.0436956	0.0434742	-0.00122769	2	1.3934e-05	-5.3373e-08
2	0	0	1	1	33.1953	0.0386954	0.0385097	-0.00138313	2	1.38029e-05	-5.3264e-08
2	0	0	1	1	33.2953	0.0336952	0.0334879	-0.00150853	2	1.36576e-05	-5.05173e-08
2	0	0	1	1	33.3953	0.028695	0.0284979	-0.00159445	2	1.35017e-05	-4.54383e-08
2	0	0	1	1	33.4953	0.0236948	0.0234506	-0.0016396	2	1.33394e-05	-3.84495e-08
2	0	0	1	1	33.5953	0.0186946	0.0185221	-0.00164697	2	1.31746e-05	-3.05054e-08
2	0	0	1	1	33.6953	0.0136944	0.0135066	-0.00162004	2	1.30108e-05	-2.18813e-08
2	0	0	1	1	33.7953	0.00869421	0.00846045	-0.00157112	2	1.28508e-05	-1.32924e-08
2	0	0	1	1	33.8953	0.003694	0.00347256	-0.00150859	2	1.26965e-05	-5.23867e-09
2	0	0	1	1	33.9953	-0.0013062	-0.00155455	-0.0014393	2	1.25489e-05	2.23746e-09
2	0	0	1	1	34.0953	-0.0063064	-0.0065753	-0.00136194	2	1.24086e-05	8.95518e-09
2	0	0	1	1	34.1953	-0.0113066	-0.0115155	-0.00129146	2	1.22757e-05	1.48718e-08
2	0	0	1	1	34.2953	-0.0163068	-0.0165543	-0.0012218	2	1.21498e-05	2.0226e-08
2	0	0	1	1	34.3953	-0.021307	-0.0215188	-0.00115736	2	1.20306e-05	2.49051e-08
2	0	0	1	1	34.4953	-0.0263072	-0.0265025	-0.00109857	2	1.19175e-05	2.91149e-08
2	0	0	1	1	34.5953	-0.0313074	-0.0315296	-0.00104548	2	1.18101e-05	3.29634e-08
2	0	0	1	1	34.6953	-0.0363076	-0.0365493	-0.000995039	2	1.17078e-05	3.6368e-08
2	0	0	1	1	34.7953	-0.0413078	-0.041534	-0.000952631	2	1.16102e-05	3.95666e-08
2	0	0	1	1	34.8953	-0.046308	-0.0465484	-0.000912165	2	1.15167e-05	4.24598e-08
2	0	0	1	1	34.9953	-0.0513082	-0.0515288	-0.00087632	2	1.14272e-05	4.51557e-08
2	0	0	1	1	35.0953	-0.0563084	-0.0565252	-0.0008422	2	1.1341e-05	4.76055e-08
2	0	0	1	1	35.1953	-0.0613086	-0.0615173	-0.000811813	2	1.12581e-05	4.99405e-08
2	0	0	1	1	35.2953	-0.0663089	-0.066537	-0.000784539	2	1.1178e-05	5.22009e-08
2	0	0	1	1	35.3953	-0.071309	-0.0715705	-0.000759723	2	1.11007e-05	5.43738e-08
2	0	0	1	1	35.4953	-0.0763093	-0.0765181	-0.000735375	2	1.10258e-05	5.62695e-08
2	0	0	1	1	35.5953	-0.0813095	-0.0815675	-0.000712679	2	1.09531e-05	5.81314e-08
2	0	0	1	1	35.6953	-0.0863097	-0.0865278	-0.000692595	2	1.08826e-05	5.99287e-08
2	0	0	1	1	35.7953	-0.0913099	-0.0915411	-0.00067509	2	1.0814e-05	6.17985e-08
2	0	0	1	1	35.8953	-0.0963101	-0.0966043	-0.000655676	2	1.07472e-05	6.33411e-08
2	0	0	0	1	35.9955	-0.10131	-0.101517	-0.000641387	2	1.06819e-05	6.51116e-08
2	0	0	0	1	36.0955	-0.10631	-0.106561	-0.000625848	2	1.06184e-05	6.6691e-08
2	0	0	0	1	36.1955	-0.111311	-0.111559	-0.000612494	2	1.05563e-05	6.83295e-08
2	0	0	0	1	36.2955	-0.116311	-0.116508	-0.000599827	2	1.04956e-05	6.98848e-08
2	0	0	0	1	36.3955	-0.121311	-0.121536	-0.000586521	2	1.04362e-05	7.12836e-08
2	0	0	0	1	36.4955	-0.126311	-0.126525	-0.00057476	2	1.03779e-05	7.27217e-08
2	0	0	0	1	36.5955	-0.131311	-0.131545	-0.000563761	2	1.03208e-05	7.41599e-08
2	0	0	0	1	36.6955	-0.136312	-0.136557	-0.000551637	2	1.02649e-05	7.533e-08
2	0	0	0	1	36.7955	-0.141312	-0.141584	-0.000541584	2	1.021e-05	7.66798e-08
2	0	0	0	1	36.8955	-0.146312	-0.146519	-0.000532994	2	1.0156e-05	7.80939e-08
2	0	0	0	1	36.9955	-0.151312	-0.151545	-0.000522685	2	1.01031e-05	7.92105e-08
2	0	0	0	1	37.0955	-0.156313	-0.156577	-0.000514131	2	1.0051e-05	8.05008e-08
2	0	0	0	1	37.1955	-0.161313	-0.161539	-0.00050573	2	9.99974e-06	8.16951e-08
2	0	0	0	1	37.2955	-0.166313	-0.166576	-0.000498994	2	9.9493e-06	8.31204e-08
2	0	0	0	1	37.3955	-0.171313	-0.171488	-0.000491259	2	9.89962e-06	8.42452e-08
2	0	0	0	1	37.4955	-0.176313	-0.176535	-0.000484286	2	9.85063e-06	8.54931e-08
2	0	0	0	1	37.5955	-0.181314	-0.181548	-0.000477674	2	9.80231e-06	8.67207e-08
2	0	0	0	1	37.6955	-0.186314	-0.186505	-0.000471522	2	9.7546e-06	8.79411e-08
2	0	0	0	1	37.7955	-0.191314	-0.191601	-0.000467586	2	9.70746e-06	8.959e-08
2	0	0	0	1	37.8955	-0.196314	-0.196495	-0.000460831	2	9.66083e-06	9.05509e-08
2	1	0	1	0	37.9849	-0.199214	-0.199437	-0.000362841	2	9.62105e-06	7.2364e-08
2	1	0	1	0	38.0849	-0.194214	-0.194437	-0.000331106	2	9.58707e-06	6.43791e-08
2	1	0	1	0	38.1849	-0.189214	-0.189373	-0.00031276	2	9.55532e-06	5.92281e-08
2	1	0	1	0	38.2849	-0.184214	-0.184358	-0.000299243	2	9.52512e-06	5.5168e-08
2	1	0	1	0	38.3849	-0.179213	-0.179423	-0.000286626	2	9.4962e-06	5.14274e-08
2	1	0	1	0	38.4849	-0.174213	-0.174454	-0.000275865	2	9.46839e-06	4.81256e-08
2	1	0	1	0	38.5849	-0.169213	-0.169438	-0.000267339	2	9.44158e-06	4.52973e-08
2	1	0	1	0	38.6849	-0.164213	-0.164419	-0.000257463	2	9.4157e-06	4.23319e-08
2	1	0	1	0	38.7849	-0.159213	-0.159416	-0.00025051	2	9.39066e-06	3.99352e-08
2	1	0	1	0	38.8849	-0.154212	-0.15447	-0.000242417	2	9.36645e-06	3.74461e-08
2	1	0	1	0	38.9849	-0.149212	-0.149432	-0.000235001	2	9.34296e-06	3.51168e-08
2	1	0	1	0	39.0849	-0.144212	-0.144432	-0.000228284	2	9.32019e-06	3.29714e-08
2	1	0	1	0	39.1849	-0.139212	-0.139378	-0.000220063	2	9.29811e-06	3.0672e-08
2	1	0	1	0	39.2849	-0.134212	-0.13443	-0.000215841	2	9.27668e-06	2.90154e-08
2	1	0	1	0	39.3849	-0.129211	-0.129446	-0.000208756	2	9.25587e-06	2.70226e-08
2	1	0	1	0	39.4849	-0.124211	-0.124364	-0.000203137	2	9.23567e-06	2.52629e-08
2	1	0	1	0	39.5849	-0.119211	-0.119363	-0.000198078	2	9.21604e-06	2.36432e-08
2	1	0	1	0	39.6849	-0.114211	-0.114391	-0.000191265	2	9.19696e-06	2.1879e-08
2	1	0	1	0	39.7849	-0.109211	-0.109437	-0.000186689	2	9.17839e-06	2.04307e-08
2	1	0	1	0	39.8849	-0.10421	-0.104435	-0.000182651	2	9.16032e-06	1.90752e-08
2	1	0	1	0	39.9849	-0.0992102	-0.0994295	-0.000177298	3	9.14272e-06	1.76287e-08
2	1	0	0	0	40.0851	-0.09421	-0.0944448	-0.0001729	3	9.12555e-06	1.63295e-08
2	1	0	0	0	40.1851	-0.0892098	-0.0894113	-0.000169023	3	9.10886e-06	1.51126e-08
2	1	0	0	0	40.2851	-0.0842096	-0.0843959	-0.000164563	3	9.09261e-06	1.38884e-08
2	1	0	0	0	40.3851	-0.0792094	-0.0794154	-0.000158696	3	9.07679e-06	1.26029e-08
2	1	0	0	0	40.4851	-0.0742092	-0.0743936	-0.00015584	3	9.0614e-06	1.15935e-08
2	1	0	0	0	40.5851	-0.069209	-0.0693866	-0.00015064	3	9.04644e-06	1.04524e-08
2	1	0	0	0	40.6851	-0.0642088	-0.0644465	-0.000146521	3	9.03192e-06	9.44274e-09
2	1	0	0	0	40.7851	-0.0592086	-0.0594087	-0.000141425	3	9.01783e-06	8.40186e-09
2	1	0	0	0	40.8851	-0.0542084	-0.0544792	-0.000137722	3	9.00421e-06	7.503e-09
2	1	0	0	0	40.9851	-0.0492081	-0.0494001	-0.000133001	3	8.99109e-06	6.57025e-09
2	1	0	0	0	41.0851	-0.0442079	-0.0443338	-0.000125296	3	8.97845e-06	5.55483e-09
2	1	0	0	0	41.1851	-0.0392077	-0.039384	-0.00011967	3	8.96636e-06	4.71308e-09
2	1	0	0	0	41.2851	-0.0342075	-0.034359	-0.000115257	3	8.95489e-06	3.96013e-09
2	1	0	0	0	41.3851	-0.0292073	-0.0293998	-0.000106802	3	8.94411e-06	3.13994e-09
2	1	0	0	0	41.4851	-0.0242071	-0.0243854	-9.7263e-05	3	8.93415e-06	2.3718e-09
2	1	0	0	0	41.5851	-0.0192069	-0.0193731	-8.81802e-05	3	8.92515e-06	1.70833e-09
2	1	0	0	0	41.6851	-0.0142067	-0.0144393	-7.5176e-05	3	8.91724e-06	1.08549e-09
2	1	0	0	0	41.7851	-0.00920652	-0.00935707	-5.94356e-05	3	8.91077e-06	5.56143e-10
2	1	0	0	0	41.8851	-0.00420631	-0.0043978	-3.95372e-05	3	8.90605e-06	1.73877e-10
2	1	0	0	0	41.9851	0.000793888	0.00065157	-1.4313e-05	3	8.90359e-06	-9.32594e-12
2	1	0	0	0	42.0851	0.00579409	0.00560659	1.55497e-05	3	8.90391e-06	8.71806e-11
2	1	0	0	0	42.1851	0.0107943	0.0106379	5.70706e-05	3	8.90781e-06	6.07113e-10
2	1	0	0	0	42.2851	0.0157945	0.0156481	0.000106727	3	8.91626e-06	1.67008e-09
2	1	0	0	0	42.3851	0.0207947	0.0205893	0.000171507	3	8.93043e-06	3.5312e-09
2	1	0	0	0	42.4851	0.0257949	0.0256016	0.000250611	3	8.95172e-06	6.41604e-09
2	1	0	0	0	42.5851	0.0307951	0.0306298	0.000345733	3	8.98178e-06	1.05897e-08
2	1	0	0	0	42.6851	0.0357953	0.0356229	0.000462049	3	9.0224e-06	1.64595e-08
2	1	0	0	0	42.7851	0.0407955	0.0405653	0.000594373	3	9.07543e-06	2.41109e-08
2	1	0	0	0	42.8851	0.0457957	0.0456401	0.000745313	3	9.14264e-06	3.40161e-08
2	1	0	0	0	42.9851	0.0507959	0.0506269	0.000909894	3	9.22556e-06	4.60651e-08
2	1	0	0	0	43.0851	0.0557961	0.0556582	0.00108006	3	9.32535e-06	6.01145e-08
2	1	0	0	0	43.1851	0.0607963	0.0606514	0.00124871	3	9.44222e-06	7.57362e-08
2	1	0	0	0	43.2851	0.0657965	0.0655863	0.00141205	3	9.57582e-06	9.26111e-08
2	1	0	0	0	43.3851	0.0707967	0.0706007	0.00155578	3	9.72478e-06	1.09839e-07
2	1	0	0	0	43.4851	0.0757969	0.0756236	0.00167922	3	9.88709e-06	1.26988e-07
2	1	0	0	0	43.5851	0.0807971	0.0806189	0.00177173	3	1.00601e-05	1.42835e-07
2	1	0	0	0	43.6851	0.0857973	0.0855972	0.00183186	3	1.02409e-05	1.56802e-07
2	1	0	0	0	43.7851	0.0907975	0.0906286	0.00186503	3	1.04264e-05	1.69025e-07
2	1	0	0	0	43.8851	0.0957977	0.0956016	0.00187197	3	1.06138e-05	1.78963e-07
2	1	0	0	0	43.9851	0.100798	0.10065	0.00185835	3	1.08007e-05	1.87042e-07
2	1	0	0	0	44.0851	0.105798	0.105578	0.00182721	3	1.09855e-05	1.92914e-07
2	1	0	0	0	44.1851	0.110798	0.110655	0.0017864	3	1.11665e-05	1.97675e-07
2	1	0	0	0	44.2851	0.115798	0.115655	0.00173781	3	1.13431e-05	2.00986e-07
2	1	0	0	0	44.3851	0.120799	0.120583	0.00168518	3	1.15146e-05	2.03205e-07
2	1	0	0	0	44.4851	0.125799	0.125594	0.00163301	3	1.16808e-05	2.05095e-07
2	1	0	0	0	44.5851	0.130799	0.130616	0.00157987	3	1.18418e-05	2.06357e-07
2	1	0	0	0	44.6851	0.135799	0.135637	0.00152965	3	1.19975e-05	2.07478e-07
2	1	0	0	0	44.7851	0.1408	0.140632	0.00148099	3	1.21483e-05	2.08276e-07
2	1	0	0	0	44.8851	0.1458	0.145584	0.00143409	3	1.22944e-05	2.08781e-07
2	1	0	1	0	44.9853	0.1508	0.150645	0.00139114	3	1.24362e-05	2.09569e-07
2	1	0	1	0	45.0853	0.1558	0.15559	0.00135261	3	1.25738e-05	2.10452e-07
2	1	0	1	0	45.1853	0.1608	0.160603	0.00131584	3	1.27074e-05	2.11329e-07
2	1	0	1	0	45.2853	0.165801	0.165624	0.00127951	3	1.28375e-05	2.11917e-07
2	1	0	1	0	45.3853	0.170801	0.170609	0.00124691	3	1.29642e-05	2.12734e-07
2	1	0	1	0	45.4853	0.175801	0.175637	0.00121727	3	1.30878e-05	2.13797e-07
2	1	0	1	0	45.5853	0.180801	0.180586	0.00119063	3	1.32085e-05	2.15012e-07
2	1	0	1	0	45.6853	0.185801	0.185625	0.00116274	3	1.33265e-05	2.15835e-07
2	1	0	1	0	45.7853	0.190802	0.190622	0.00113905	3	1.3442e-05	2.17128e-07
2	1	0	1	0	45.8853	0.195802	0.195646	0.00111794	3	1.35551e-05	2.1872e-07
2	1	0	1	0	45.9853	0.200802	0.200636	0.00109609	3	1.36661e-05	2.19916e-07
2	1	0	1	0	46.0853	0.205802	0.205694	0.00107612	3	1.37751e-05	2.21353e-07
2	1	0	1	0	46.1853	0.210802	0.210585	0.00105863	3	1.38822e-05	2.22932e-07
2	1	0	1	0	46.2853	0.215803	0.215627	0.00104256	3	1.39876e-05	2.24803e-07
2	1	0	1	0	46.3853	0.220803	0.220604	0.00102658	3	1.40913e-05	2.26468e-07
2	1	0	1	0	46.4853	0.225803	0.225618	0.00101025	3	1.41934e-05	2.27931e-07
2	1	0	1	0	46.5853	0.230803	0.230673	0.000996238	3	1.42941e-05	2.29805e-07
2	1	0	1	0	46.6853	0.235803	0.235619	0.000982487	3	1.43934e-05	2.31492e-07
2	1	0	1	0	46.7853	0.240804	0.240611	0.000970619	3	1.44913e-05	2.33541e-07
2	1	0	1	0	46.8853	0.245804	0.245666	0.000958159	3	1.4588e-05	2.35387e-07
2	1	0	1	0	46.9853	0.250804	0.250661	0.000945974	3	1.46835e-05	2.37118e-07
2	1	0	1	0	47.0853	0.255804	0.255642	0.000935985	3	1.47779e-05	2.39277e-07
2	1	0	1	0	47.1853	0.260804	0.260631	0.000926233	3	1.48712e-05	2.41405e-07
2	1	0	1	0	47.2853	0.265805	0.265648	0.000915376	3	1.49636e-05	2.43168e-07
2	1	0	1	0	47.3853	0.270805	0.270605	0.00090788	3	1.50551e-05	2.45677e-07
2	1	0	1	0	47.4853	0.275805	0.275592	0.00090095	3	1.51458e-05	2.48294e-07
2	1	0	1	0	47.5853	0.280805	0.280684	0.000893897	3	1.52358e-05	2.50903e-07
2	1	0	1	0	47.6853	0.285805	0.285619	0.00088681	3	1.53252e-05	2.5329e-07
2	1	0	1	0	47.7853	0.290806	0.290662	0.000882711	3	1.54139e-05	2.56571e-07
2	1	0	1	0	47.8853	0.295806	0.295697	0.000877941	3	1.55022e-05	2.59604e-07
2	0	0	1	0	47.9749	0.299706	0.299508	0.000788124	3	1.55804e-05	2.36049e-07
2	0	0	1	0	48.0749	0.294706	0.294556	0.000740033	3	1.56562e-05	2.17981e-07
2	0	0	1	0	48.1749	0.289706	0.289516	0.000714747	3	1.57286e-05	2.06931e-07
2	0	0	1	0	48.2749	0.284705	0.284481	0.000694077	3	1.57989e-05	1.97452e-07
2	0	0	1	0	48.3749	0.279705	0.279502	0.000677317	3	1.58673e-05	1.89312e-07
2	0	0	1	0	48.4749	0.274705	0.274476	0.000663481	3	1.59341e-05	1.8211e-07
2	0	0	1	0	48.5749	0.269705	0.26953	0.000649718	3	1.59996e-05	1.75118e-07
2	0	0	1	0	48.6749	0.264705	0.264533	0.000638884	3	1.60637e-05	1.69006e-07
2	0	0	1	0	48.7749	0.259704	0.259496	0.000626906	3	1.61267e-05	1.6268e-07
2	0	0	1	0	48.8749	0.254704	0.254515	0.000616619	3	1.61886e-05	1.56939e-07
2	0	0	1	0	48.9749	0.249704	0.249519	0.00060637	3	1.62495e-05	1.51301e-07
2	0	0	1	0	49.0749	0.244704	0.244531	0.00059662	3	1.63094e-05	1.45892e-07
2	0	0	1	0	49.1749	0.239703	0.239513	0.000587291	3	1.63684e-05	1.40664e-07
2	0	0	1	0	49.2749	0.234703	0.234532	0.000578698	3	1.64265e-05	1.35723e-07
2	0	0	1	0	49.3749	0.229703	0.229556	0.000570087	3	1.64837e-05	1.30867e-07
2	0	0	1	0	49.4749	0.224703	0.224493	0.000561855	3	1.65401e-05	1.26132e-07
2	0	0	1	0	49.5749	0.219703	0.219445	0.000553947	3	1.65956e-05	1.21561e-07
2	0	0	1	0	49.6749	0.214702	0.21451	0.000546689	3	1.66503e-05	1.17271e-07
2	0	0	1	0	49.7749	0.209702	0.2095	0.000537905	3	1.67042e-05	1.12691e-07
2	0	0	1	0	49.8749	0.204702	0.204489	0.000529295	3	1.67573e-05	1.08235e-07
2	0	0	1	0	49.9749	0.199702	0.199464	0.000521186	3	1.68096e-05	1.03958e-07
2	0	0	1	0	50.0749	0.194702	0.194476	0.000513401	3	1.68611e-05	9.98443e-08
2	0	0	1	0	50.1749	0.189701	0.189482	0.000505226	3	1.69118e-05	9.57313e-08
2	0	0	1	0	50.2749	0.184701	0.184495	0.000496032	3	1.69616e-05	9.15156e-08
2	0	0	1	0	50.3749	0.179701	0.179526	0.000487306	3	1.70106e-05	8.74843e-08
2	0	0	1	0	50.4749	0.174701	0.174482	0.000480096	3	1.70588e-05	8.37682e-08
2	0	0	1	0	50.5749	0.169701	0.169528	0.000470685	3	1.7106e-05	7.97944e-08
2	0	0	1	0	50.6749	0.1647	0.164433	0.000461097	3	1.71524e-05	7.58196e-08
2	0	0	1	0	50.7749	0.1597	0.159479	0.000450986	3	1.71977e-05	7.19229e-08
2	0	0	1	0	50.8749	0.1547	0.154493	0.000440608	3	1.72421e-05	6.80707e-08
2	0	0	1	0	50.9749	0.1497	0.149452	0.000430692	3	1.72855e-05	6.43676e-08
2	0	0	0	0	51.0751	0.1447	0.144434	0.00041729	3	1.73278e-05	6.02709e-08
2	0	0	0	0	51.1751	0.139699	0.139406	0.000404674	3	1.73687e-05	5.6414e-08
2	0	0	0	0	51.2751	0.134699	0.134428	0.000391681	3	1.74084e-05	5.26527e-08
2	0	0	0	0	51.3751	0.129699	0.129495	0.00037638	3	1.74465e-05	4.87393e-08
2	0	0	0	0	51.4751	0.124699	0.124521	0.0003573	3	1.7483e-05	4.44912e-08
2	0	0	0	0	51.5751	0.119699	0.119455	0.000336986	3	1.75175e-05	4.02548e-08
2	0	0	0	0	51.6751	0.114698	0.114507	0.000312654	3	1.75497e-05	3.5801e-08
2	0	0	0	0	51.7751	0.109698	0.10949	0.000283334	3	1.75793e-05	3.10223e-08
2	0	0	0	0	51.8751	0.104698	0.104447	0.000249781	3	1.76057e-05	2.60889e-08
2	0	0	0	0	51.9751	0.0996979	0.0994721	0.000206509	3	1.76283e-05	2.05419e-08
2	0	0	0	0	52.0751	0.0946977	0.0944991	0.000154918	3	1.76463e-05	1.46396e-08
2	0	0	0	0	52.1751	0.0896975	0.0895069	9.3854e-05	3	1.76586e-05	8.40058e-09
2	0	0	0	0	52.2751	0.0846973	0.0844894	1.68427e-05	3	1.76639e-05	1.42303e-09
2	0	0	0	0	52.3751	0.0796971	0.0794792	-7.56335e-05	3	1.76609e-05	-6.01129e-09
2	0	0	0	0	52.4751	0.0746969	0.0744701	-0.000184387	3	1.76478e-05	-1.37313e-08
2	0	0	0	0	52.5751	0.0696967	0.0694907	-0.000315042	3	1.76227e-05	-2.18925e-08
2	0	0	0	0	52.6751	0.0646964	0.0644594	-0.000464818	3	1.75836e-05	-2.99619e-08
2	0	0	0	0	52.7751	0.0596963	0.0594811	-0.000630024	3	1.75287e-05	-3.74745e-08
2	0	0	0	0	52.8751	0.0546961	0.0545218	-0.000809698	3	1.74563e-05	-4.41462e-08
2	0	0	0	0	52.9751	0.0496959	0.0495021	-0.000997293	3	1.73657e-05	-4.93681e-08
2	0	0	0	0	53.0751	0.0446957	0.0444792	-0.00117692	3	1.72565e-05	-5.23486e-08
2	0	0	0	0	53.1751	0.0396955	0.0394935	-0.00134111	3	1.71302e-05	-5.2965e-08
2	0	0	0	0	53.2751	0.0346953	0.0344452	-0.00147525	3	1.69887e-05	-5.08152e-08
2	0	0	0	0	53.3751	0.0296951	0.0294933	-0.00157812	3	1.68354e-05	-4.6544e-08
2	0	0	0	0	53.4751	0.0246949	0.0244492	-0.00163749	3	1.66742e-05	-4.00355e-08
2	0	0	0	0	53.5751	0.0196946	0.0194508	-0.00165729	3	1.65089e-05	-3.22355e-08
2	0	0	0	0	53.6751	0.0146944	0.0144523	-0.00164566	3	1.63432e-05	-2.37835e-08
2	0	0	0	0	53.7751	0.00969425	0.00944318	-0.00160473	3	1.61803e-05	-1.51537e-08
2	0	0	0	0	53.8751	0.00469405	0.00447756	-0.00154839	3	1.60224e-05	-6.93299e-09
2	0	0	0	0	53.9751	-0.000306156	-0.000514567	-0.00147988	3	1.58707e-05	7.61496e-10
2	0	0	0	0	54.0751	-0.00530636	-0.0055597	-0.00140744	3	1.5726e-05	7.82495e-09
2	0	0	0	0	54.1751	-0.0103066	-0.0105656	-0.00133429	3	1.55885e-05	1.40976e-08
2	0	0	0	0	54.2751	-0.0153068	-0.015509	-0.0012671	3	1.54582e-05	1.96514e-08
2	0	0	0	0	54.3751	-0.020307	-0.0205361	-0.00120046	3	1.53347e-05	2.46527e-08
2	0	0	0	0	54.4751	-0.0253072	-0.0256045	-0.00113962	3	1.52174e-05	2.91795e-08
2	0	0	0	0	54.5751	-0.0303074	-0.0305267	-0.00108552	3	1.51059e-05	3.31374e-08
2	0	0	0	0	54.6751	-0.0353076	-0.035487	-0.00103575	3	1.49997e-05	3.67555e-08
2	0	0	0	0	54.7751	-0.0403078	-0.04053	-0.000990136	3	1.48983e-05	4.01302e-08
2	0	0	0	0	54.8751	-0.045308	-0.0455328	-0.00094853	3	1.48012e-05	4.31892e-08
2	0	0	0	0	54.9751	-0.0503082	-0.0505652	-0.000910678	3	1.47081e-05	4.60486e-08
2	0	0	0	0	55.0751	-0.0553084	-0.055516	-0.000875489	3	1.46185e-05	4.86036e-08
2	0	0	0	0	55.1751	-0.0603086	-0.0605622	-0.000845371	3	1.45322e-05	5.11975e-08
2	0	0	0	0	55.2751	-0.0653088	-0.0656147	-0.000817234	3	1.44489e-05	5.36225e-08
2	0	0	0	0	55.3751	-0.070309	-0.0705941	-0.000789842	3	1.43684e-05	5.57582e-08
2	0	0	0	0	55.4751	-0.0753092	-0.0755778	-0.000766031	3	1.42904e-05	5.78949e-08
2	0	0	0	0	55.5751	-0.0803094	-0.0805349	-0.000743102	3	1.42147e-05	5.98456e-08
2	0	0	0	0	55.6751	-0.0853096	-0.0855196	-0.0007227	3	1.41412e-05	6.1805e-08
2	0	0	0	0	55.7751	-0.0903098	-0.0905563	-0.000703972	3	1.40697e-05	6.37491e-08
2	0	0	0	0	55.8751	-0.09531	-0.0955007	-0.000685962	3	1.4e-05	6.55099e-08
2	0	0	1	0	55.9753	-0.10031	-0.100536	-0.000667678	3	1.39319e-05	6.71259e-08
2	0	0	1	0	56.0753	-0.10531	-0.105526	-0.000652342	3	1.38656e-05	6.88393e-08
2	0	0	1	0	56.1753	-0.110311	-0.110543	-0.000637941	3	1.38008e-05	7.05198e-08
2	0	0	1	0	56.2753	-0.115311	-0.115516	-0.000625241	3	1.37374e-05	7.22252e-08
2	0	0	1	0	56.3753	-0.120311	-0.120528	-0.000611683	3	1.36753e-05	7.37251e-08
2	0	0	1	0	56.4753	-0.125311	-0.125516	-0.000599748	3	1.36144e-05	7.5278e-08
2	0	0	1	0	56.5753	-0.130311	-0.130589	-0.000589605	3	1.35547e-05	7.69958e-08
2	0	0	1	0	56.6753	-0.135312	-0.135569	-0.000578014	3	1.34962e-05	7.83609e-08
2	0	0	1	0	56.7753	-0.140312	-0.140563	-0.000567055	3	1.34388e-05	7.97072e-08
2	0	0	1	0	56.8753	-0.145312	-0.145568	-0.000556683	3	1.33824e-05	8.10354e-08
2	0	0	1	0	56.9753	-0.150312	-0.150596	-0.000547157	3	1.3327e-05	8.23999e-08
2	0	0	1	0	57.0753	-0.155312	-0.155534	-0.000536947	3	1.32725e-05	8.35138e-08
2	0	0	1	0	57.1753	-0.160313	-0.160561	-0.000530148	3	1.3219e-05	8.51209e-08
2	0	0	1	0	57.2753	-0.165313	-0.165535	-0.000520949	3	1.31663e-05	8.62351e-08
2	0	0	1	0	57.3753	-0.170313	-0.170525	-0.000512394	3	1.31144e-05	8.73759e-08
2	0	0	1	0	57.4753	-0.175313	-0.175551	-0.000505712	3	1.30632e-05	8.87781e-08
2	0	0	1	0	57.5753	-0.180313	-0.180538	-0.000499706	3	1.30127e-05	9.02157e-08
2	0	0	1	0	57.6753	-0.185314	-0.185548	-0.000493222	3	1.29629e-05	9.15162e-08
2	0	0	1	0	57.7753	-0.190314	-0.190566	-0.000486547	3	1.29137e-05	9.27194e-08
2	0	0	1	0	57.8753	-0.195314	-0.19552	-0.000481399	3	1.2865e-05	9.41233e-08
2	1	0	1	1	57.9692	-0.199989	-0.200104	-0.000468144	3	1.28198e-05	9.36777e-08
2	1	0	0	1	58.0647	-0.195214	-0.195422	-0.000352366	3	1.27851e-05	6.88599e-08
2	1	0	0	1	58.1647	-0.190214	-0.190383	-0.000332252	3	1.27512e-05	6.32551e-08
2	1	0	0	1	58.2647	-0.185214	-0.185409	-0.000319006	3	1.2719e-05	5.91465e-08
2	1	0	0	1	58.3647	-0.180213	-0.180447	-0.000305057	3	1.26881e-05	5.50467e-08
2	1	0	0	1	58.4647	-0.175213	-0.175466	-0.000294617	3	1.26583e-05	5.16953e-08
2	1	0	0	1	58.5647	-0.170213	-0.170437	-0.000285849	3	1.26296e-05	4.87191e-08
2	1	0	0	1	58.6647	-0.165213	-0.165395	-0.000276817	3	1.26018e-05	4.57841e-08
2	1	0	0	1	58.7647	-0.160213	-0.160448	-0.00026827	3	1.25749e-05	4.30434e-08
2	1	0	0	1	58.8647	-0.155212	-0.155421	-0.000259764	3	1.25488e-05	4.03729e-08
2	1	0	0	1	58.9647	-0.150212	-0.150397	-0.000252619	3	1.25235e-05	3.79932e-08
2	1	0	0	1	59.0647	-0.145212	-0.145419	-0.00024602	3	1.2499e-05	3.57759e-08
2	1	0	0	1	59.1647	-0.140212	-0.140379	-0.000238446	3	1.24751e-05	3.34728e-08
2	1	0	0	1	59.2647	-0.135212	-0.135347	-0.00023082	3	1.24519e-05	3.12407e-08
2	1	0	0	1	59.3647	-0.130211	-0.130357	-0.000225698	3	1.24294e-05	2.94212e-08
2	1	0	0	1	59.4647	-0.125211	-0.125394	-0.00021968	3	1.24075e-05	2.75465e-08
2	1	0	0	1	59.5647	-0.120211	-0.120389	-0.000212651	3	1.23862e-05	2.56009e-08
2	1	0	0	1	59.6647	-0.115211	-0.115416	-0.000207283	3	1.23654e-05	2.39238e-08
2	1	0	0	1	59.7647	-0.110211	-0.110415	-0.000202335	3	1.23452e-05	2.23408e-08
2	1	0	0	1	59.8647	-0.10521	-0.105422	-0.000198292	3	1.23256e-05	2.09044e-08
2	1	0	0	1	59.9647	-0.10021	-0.100425	-0.000192578	3	1.23064e-05	1.93396e-08
2	1	0	1	1	60.0649	-0.09521	-0.0954371	-0.000186733	3	1.22876e-05	1.78212e-08
2	1	0	1	1	60.1649	-0.0902098	-0.0904715	-0.00018376	3	1.22694e-05	1.6625e-08
2	1	0	1	1	60.2649	-0.0852096	-0.0854369	-0.000178069	3	1.22516e-05	1.52136e-08
2	1	0	1	1	60.3649	-0.0802094	-0.0804416	-0.000173983	3	1.22342e-05	1.39955e-08
2	1	0	1	1	60.4649	-0.0752092	-0.0754071	-0.000170528	3	1.22173e-05	1.2859e-08
2	1	0	1	1	60.5634	-0.070284	-0.070469	-0.000165063	3	1.2201e-05	1.16318e-08
2	1	0	1	1	60.5676	-0.070034	-0.0704213	-0.000169016	3	1.22004e-05	1.19023e-08