File: AutoAnalysis Examples/EC/C003B-20ppb-A_C01.mpt
EC-Lab ASCII FILE
Nb header lines : 59

Cyclic Voltammetry

Run on channel : 1 (SN 22398)
User :
CE vs. WE compliance from -10 V to 10 V
Electrode connection : standard
Ewe ctrl range : min = -1.00 V, max = 1.00 V
Safety Limits :
	Ewe min = -2.00 V
	Ewe max = 2.00 V
	|I| = 50.000 mA
	for t > 10 ms
Acquisition started on : 11/21/2018 10:22:24
Technique started on : 11/21/2018 10:22:24
Saved on :
	File : C003B-20ppb-A_C01.mpr
	Directory : \\ECCOMPUTER\Users\Lab User\Google Drive\Electrochemical Data\EC-Lab\Data\FREDsense\Tim\2018.11.21 - EC comparison to High Throughput\
	Host : 172.16.1.30
Device : SP-50 (SN 0301030103010301)
Address : USB
EC-Lab for windows v11.02 (software)
Internet server v11.02 (firmware)
Command interpretor v11.02 (firmware)
Electrode material : Au/Pd
Initial state :
Electrolyte : NaCl (0.2M)
Comments : Fe(CN)63-/Fe(CN)64- 5.10-3 M
Reference electrode : SCE Saturated Calomel Electrode (0.241 V)
Electrode surface area : 0.001 cm²
Characteristic mass : 0.001 g
Equivalent Weight : 0.000 g/eq.
Density : 0.000 g/cm3
Cycle Definition : Charge/Discharge alternance
Ei (V)              -0.100
vs.                 Ref
dE/dt               50.000
dE/dt unit          mV/s
E1 (V)              0.300
vs.                 Ref
Step percent        50
N                   10
E range min (V)     -1.000
E range max (V)     1.000
I Range             Auto
I Range min         Unset
I Range max         Unset
I Range init        Unset
Bandwidth           5
E2 (V)              -0.200
vs.                 Ref
nc cycles           2
Reverse Scan        1
Ef (V)              0.000
vs.                 Eoc

mode	ox/red	error	control changes	counter inc.	time/s	control/V	Ewe/V	<I>/mA	cycle number	(Q-Qo)/C	P/W
2	1	0	1	0	0.000000000000000E+000	-0.0985063	-0.0987139	-0.000109299	1	0.0000000E+000	1.07893e-08
2	1	0	0	0	0.111	-0.0929561	-0.0929695	-1.02259e-05	1	1.54917e-09	9.50698e-10
2	1	0	1	0	0.2265	-0.0871809	-0.0872763	3.78363e-05	1	6.80198e-09	-3.30221e-09
2	1	0	1	0	0.3265	-0.0821807	-0.0823128	4.3782e-05	1	1.12689e-08	-3.60381e-09
2	1	0	1	0	0.4265	-0.0771806	-0.0772602	4.81361e-05	1	1.62578e-08	-3.71901e-09
2	1	0	1	0	0.5265	-0.0721804	-0.0722988	5.24779e-05	1	2.16364e-08	-3.79409e-09
2	1	0	1	0	0.6265	-0.0671802	-0.0673067	5.56362e-05	1	2.72967e-08	-3.74469e-09
2	1	0	1	0	0.7265	-0.06218	-0.0622722	5.69275e-05	1	3.32328e-08	-3.545e-09
2	1	0	1	0	0.8265	-0.0571798	-0.0572938	5.93474e-05	1	3.94022e-08	-3.40024e-09
2	1	0	1	0	0.9265	-0.0521796	-0.0522656	6.5279e-05	1	4.58248e-08	-3.41185e-09
2	1	0	1	0	1.0265	-0.0471795	-0.0472629	6.46979e-05	1	5.24925e-08	-3.05781e-09
2	1	0	1	0	1.1265	-0.0421793	-0.0422114	6.63477e-05	1	5.9391e-08	-2.80063e-09
2	1	0	1	0	1.2265	-0.0371791	-0.037231	6.97798e-05	1	6.65746e-08	-2.59797e-09
2	1	0	1	0	1.3265	-0.0321789	-0.0323162	7.25354e-05	1	7.40625e-08	-2.34407e-09
2	1	0	1	0	1.4265	-0.0271787	-0.0272711	7.65875e-05	1	8.19106e-08	-2.08862e-09
2	1	0	1	0	1.5265	-0.0221786	-0.0222715	8.09081e-05	1	9.0208e-08	-1.80195e-09
2	1	0	1	0	1.6265	-0.0171784	-0.0172783	8.86078e-05	1	9.90657e-08	-1.531e-09
2	1	0	1	0	1.7265	-0.0121782	-0.0122406	9.63799e-05	1	1.08617e-07	-1.17975e-09
2	1	0	1	0	1.8265	-0.00717801	-0.00722942	0.000104784	1	1.19084e-07	-7.57531e-10
2	1	0	1	0	1.9265	-0.00217783	-0.0022691	0.00011869	1	1.30741e-07	-2.69318e-10
2	1	0	1	0	2.0265	0.00282235	0.00275908	0.000137957	1	1.4406e-07	3.80635e-10
2	1	0	1	0	2.1265	0.00782253	0.00772894	0.00016179	1	1.59452e-07	1.25046e-09
2	1	0	1	0	2.2265	0.0128227	0.0127401	0.000194807	1	1.77633e-07	2.48187e-09
2	1	0	1	0	2.3265	0.0178229	0.0177641	0.000235107	1	1.99505e-07	4.17646e-09
2	1	0	1	0	2.4265	0.0228231	0.0227498	0.00028989	1	2.26157e-07	6.59496e-09
2	1	0	1	0	2.5265	0.0278232	0.0277324	0.00035916	1	2.58966e-07	9.96037e-09
2	1	0	1	0	2.6265	0.0328234	0.0327882	0.000445623	1	2.99416e-07	1.46112e-08
2	1	0	1	0	2.7265	0.0378236	0.0377623	0.000546777	1	3.49241e-07	2.06475e-08
2	1	0	1	0	2.8265	0.0428238	0.0427152	0.000664757	1	4.10159e-07	2.83952e-08
2	1	0	1	0	2.9265	0.047824	0.04772	0.000797597	1	4.83676e-07	3.80613e-08
2	1	0	1	0	3.0265	0.0528241	0.0527842	0.000940724	1	5.71066e-07	4.96554e-08
2	1	0	1	0	3.1265	0.0578243	0.0577901	0.00108373	1	6.72739e-07	6.26287e-08
2	1	0	1	0	3.2265	0.0628245	0.0627929	0.00122058	1	7.88424e-07	7.66438e-08
2	1	0	1	0	3.3265	0.0678247	0.0677659	0.0013409	1	9.17034e-07	9.0867e-08
2	1	0	1	0	3.4265	0.0728248	0.072757	0.00143725	1	1.05661e-06	1.0457e-07
2	1	0	1	0	3.5265	0.077825	0.0777459	0.00151027	1	1.20464e-06	1.17417e-07
2	1	0	1	0	3.6265	0.0828252	0.0827444	0.00155192	1	1.35838e-06	1.28413e-07
2	1	0	1	0	3.7265	0.0878254	0.087745	0.00157097	1	1.51509e-06	1.37845e-07
2	1	0	1	0	3.8265	0.0928256	0.0927074	0.00156598	1	1.6724e-06	1.45178e-07
2	1	0	1	0	3.9265	0.0978258	0.0977282	0.0015439	1	1.82834e-06	1.50882e-07
2	1	0	1	0	4.0265	0.102826	0.102677	0.00150968	1	1.98145e-06	1.55009e-07
2	1	0	1	0	4.1265	0.107826	0.107679	0.00146889	1	2.13083e-06	1.58168e-07
2	1	0	1	0	4.2265	0.112826	0.112727	0.00142478	1	2.2759e-06	1.60611e-07
2	1	0	1	0	4.3265	0.117826	0.117699	0.00137934	1	2.41651e-06	1.62347e-07
2	1	0	1	0	4.4265	0.122827	0.122748	0.00133524	1	2.5526e-06	1.63899e-07
2	1	0	1	0	4.5265	0.127827	0.12772	0.00129352	1	2.68432e-06	1.65209e-07
2	1	0	1	0	4.6265	0.132827	0.13278	0.00125226	1	2.8119e-06	1.66276e-07
2	1	0	1	0	4.7265	0.137827	0.13768	0.00121596	1	2.9356e-06	1.67414e-07
2	1	0	1	0	4.8265	0.142827	0.142719	0.00118081	1	3.05574e-06	1.68524e-07
2	1	0	1	0	4.9265	0.147828	0.147718	0.00115064	1	3.17258e-06	1.69971e-07
2	1	0	1	0	5.0265	0.152828	0.15273	0.00112422	1	3.28642e-06	1.71702e-07
2	1	0	1	0	5.1265	0.157828	0.157752	0.00109479	1	3.39754e-06	1.72705e-07
2	1	0	1	0	5.2265	0.162828	0.162674	0.00107024	1	3.50613e-06	1.741e-07
2	1	0	1	0	5.3265	0.167828	0.1677	0.00104828	1	3.61244e-06	1.75796e-07
2	1	0	1	0	5.4265	0.172828	0.172781	0.00102964	1	3.71664e-06	1.77903e-07
2	1	0	1	0	5.5265	0.177828	0.177731	0.0010087	1	3.8189e-06	1.79277e-07
2	1	0	0	0	5.6267	0.182829	0.182728	0.000991646	1	3.9196e-06	1.81201e-07
2	1	0	0	0	5.7267	0.187829	0.187718	0.000976153	1	4.01848e-06	1.83241e-07
2	1	0	0	0	5.8267	0.192829	0.192761	0.000965615	1	4.11592e-06	1.86133e-07
2	1	0	0	0	5.9267	0.197829	0.197706	0.000956074	1	4.21223e-06	1.89022e-07
2	1	0	0	0	6.0267	0.20283	0.202666	0.00094405	1	4.3076e-06	1.91327e-07
2	1	0	0	0	6.1267	0.20783	0.207722	0.00093003	1	4.40164e-06	1.93188e-07
2	1	0	0	0	6.2267	0.21283	0.212686	0.000918452	1	4.49437e-06	1.95342e-07
2	1	0	0	0	6.3267	0.21783	0.21772	0.000908539	1	4.58605e-06	1.97807e-07
2	1	0	0	0	6.4267	0.22283	0.222724	0.000899815	1	4.67689e-06	2.00411e-07
2	1	0	0	0	6.5267	0.22783	0.227728	0.000894627	1	4.767e-06	2.03732e-07
2	1	0	0	0	6.6267	0.232831	0.232705	0.000887411	1	4.8564e-06	2.06505e-07
2	1	0	0	0	6.7267	0.237831	0.237712	0.000882481	1	4.94514e-06	2.09777e-07
2	1	0	0	0	6.8267	0.242831	0.242719	0.000876002	1	5.03328e-06	2.12623e-07
2	1	0	0	0	6.9267	0.247831	0.247671	0.00086888	1	5.12087e-06	2.15196e-07
2	1	0	0	0	7.0267	0.252831	0.252718	0.000866578	1	5.20798e-06	2.19e-07
2	1	0	0	0	7.1267	0.257832	0.257704	0.000860323	1	5.29469e-06	2.21709e-07
2	1	0	0	0	7.2267	0.262832	0.262756	0.000857236	1	5.38098e-06	2.25243e-07
2	1	0	0	0	7.3267	0.267832	0.267752	0.000856971	1	5.46695e-06	2.29456e-07
2	1	0	0	0	7.4267	0.272832	0.272761	0.000853046	1	5.55262e-06	2.32678e-07
2	1	0	0	0	7.5267	0.277832	0.277726	0.000848762	1	5.63802e-06	2.35723e-07
2	1	0	0	0	7.6267	0.282832	0.282739	0.000849334	1	5.72328e-06	2.4014e-07
2	1	0	0	0	7.7267	0.287833	0.287772	0.000846473	1	5.80841e-06	2.43592e-07
2	1	0	0	0	7.8267	0.292833	0.292737	0.000845425	1	5.89338e-06	2.47487e-07
2	1	0	0	0	7.9267	0.297833	0.29769	0.000845233	1	5.97819e-06	2.51617e-07
2	0	0	1	0	8.0161	0.297733	0.297561	0.000712243	1	6.04846e-06	2.11935e-07
2	0	0	1	0	8.1161	0.292733	0.292592	0.000663831	1	6.11667e-06	1.94231e-07
2	0	0	1	0	8.2161	0.287733	0.287617	0.000630616	1	6.18094e-06	1.81376e-07
2	0	0	1	0	8.3161	0.282732	0.282584	0.000604849	1	6.24233e-06	1.70921e-07
2	0	0	1	0	8.4161	0.277732	0.277575	0.000583497	1	6.30134e-06	1.61964e-07
2	0	0	1	0	8.5161	0.272732	0.272568	0.000565052	1	6.3584e-06	1.54015e-07
2	0	0	1	0	8.6161	0.267732	0.267593	0.000547207	1	6.41374e-06	1.46429e-07
2	0	0	1	0	8.7161	0.262732	0.262571	0.000534586	1	6.46757e-06	1.40367e-07
2	0	0	1	0	8.8161	0.257732	0.257628	0.000521804	1	6.52006e-06	1.34431e-07
2	0	0	1	0	8.9161	0.252731	0.252586	0.000511047	1	6.57135e-06	1.29083e-07
2	0	0	1	0	9.0161	0.247731	0.247592	0.000499238	1	6.62147e-06	1.23607e-07
2	0	0	1	0	9.1161	0.242731	0.242629	0.00048849	1	6.6705e-06	1.18522e-07
2	0	0	1	0	9.2161	0.237731	0.23758	0.000478902	1	6.71859e-06	1.13777e-07
2	0	0	1	0	9.3161	0.232731	0.232605	0.00047036	1	6.76581e-06	1.09408e-07
2	0	0	1	0	9.4161	0.22773	0.227598	0.000462319	1	6.81218e-06	1.05223e-07
2	0	0	1	0	9.5161	0.22273	0.222576	0.000456237	1	6.85777e-06	1.01547e-07
2	0	0	1	0	9.6161	0.21773	0.217602	0.000448419	1	6.90258e-06	9.75768e-08
2	0	0	1	0	9.7161	0.21273	0.212633	0.000440387	1	6.94667e-06	9.36408e-08
2	0	0	1	0	9.8161	0.20773	0.207577	0.000430605	1	6.98995e-06	8.93838e-08
2	0	0	1	0	9.9161	0.20273	0.202562	0.000425366	1	7.03252e-06	8.61629e-08
2	0	0	1	0	10.0161	0.197729	0.197594	0.000418733	1	7.07452e-06	8.27392e-08
2	0	0	1	0	10.1161	0.192729	0.192614	0.000411106	1	7.1158e-06	7.91845e-08
2	0	0	1	0	10.2161	0.187729	0.187588	0.000404173	1	7.15636e-06	7.58177e-08
2	0	0	1	0	10.3161	0.182729	0.182604	0.000397505	1	7.19624e-06	7.25859e-08
2	0	0	0	0	10.4163	0.177729	0.177534	0.000392272	1	7.23552e-06	6.96418e-08
2	0	0	0	0	10.5163	0.172728	0.172589	0.000384121	1	7.27402e-06	6.62949e-08
2	0	0	0	0	10.6163	0.167728	0.16753	0.000376083	1	7.31181e-06	6.30052e-08
2	0	0	0	0	10.7163	0.162728	0.162593	0.000370489	1	7.34884e-06	6.02389e-08
2	0	0	0	0	10.8163	0.157728	0.157585	0.000362328	1	7.38514e-06	5.70975e-08
2	0	0	0	0	10.9163	0.152728	0.152596	0.000352016	1	7.42055e-06	5.37163e-08
2	0	0	0	0	11.0163	0.147728	0.147557	0.000345456	1	7.4552e-06	5.09745e-08
2	0	0	0	0	11.1163	0.142727	0.142616	0.00033611	1	7.48898e-06	4.79346e-08
2	0	0	0	0	11.2163	0.137727	0.137581	0.000323989	1	7.52174e-06	4.45749e-08
2	0	0	0	0	11.3163	0.132727	0.132607	0.000313659	1	7.55342e-06	4.15935e-08
2	0	0	0	0	11.4163	0.127727	0.127577	0.000299932	1	7.58386e-06	3.82645e-08
2	0	0	0	0	11.5163	0.122727	0.12253	0.000285969	1	7.61291e-06	3.50397e-08
2	0	0	0	0	11.6163	0.117726	0.117573	0.000268513	1	7.64033e-06	3.15698e-08
2	0	0	0	0	11.7163	0.112726	0.112613	0.000247463	1	7.66587e-06	2.78677e-08
2	0	0	0	0	11.8163	0.107726	0.10757	0.00022269	1	7.68914e-06	2.39548e-08
2	0	0	0	0	11.9163	0.102726	0.102623	0.000192656	1	7.7097e-06	1.97709e-08
2	0	0	0	0	12.0163	0.0977257	0.0976042	0.000157352	1	7.72694e-06	1.53582e-08
2	0	0	0	0	12.1163	0.0927256	0.0925739	0.000112779	1	7.74012e-06	1.04404e-08
2	0	0	0	0	12.2163	0.0877254	0.0876114	5.6765e-05	1	7.74833e-06	4.97326e-09
2	0	0	0	0	12.3163	0.0827252	0.0826045	-1.12059e-05	1	7.75047e-06	-9.25661e-10
2	0	0	0	0	12.4163	0.077725	0.0775773	-8.99819e-05	1	7.74523e-06	-6.98056e-09
2	0	0	0	0	12.5163	0.0727248	0.0726361	-0.000186475	1	7.7311e-06	-1.35448e-08
2	0	0	0	0	12.6163	0.0677247	0.0675984	-0.000299625	1	7.70661e-06	-2.02542e-08
2	0	0	0	0	12.7163	0.0627245	0.0626381	-0.000425913	1	7.6702e-06	-2.66784e-08
2	0	0	0	0	12.8163	0.0577243	0.0576194	-0.000561006	1	7.62061e-06	-3.23248e-08
2	0	0	0	0	12.9163	0.0527241	0.0526252	-0.000702992	1	7.55707e-06	-3.69951e-08
2	0	0	0	0	13.0163	0.047724	0.0476119	-0.000842654	1	7.47937e-06	-4.01203e-08
2	0	0	0	0	13.1163	0.0427238	0.042571	-0.000966287	1	7.38844e-06	-4.11358e-08
2	0	0	0	0	13.2163	0.0377236	0.0376541	-0.00106923	1	7.286e-06	-4.02609e-08
2	0	0	0	0	13.3163	0.0327234	0.0325867	-0.00114636	1	7.17458e-06	-3.73562e-08
2	0	0	0	0	13.4163	0.0277232	0.0275999	-0.0011879	1	7.05727e-06	-3.2786e-08
2	0	0	0	0	13.5163	0.0227231	0.0226438	-0.00119999	1	6.93717e-06	-2.71723e-08
2	0	0	0	0	13.6163	0.0177229	0.0176517	-0.00118731	1	6.81721e-06	-2.09581e-08
2	0	0	0	0	13.7163	0.0127227	0.0126129	-0.00115469	1	6.69969e-06	-1.4564e-08
2	0	0	0	0	13.8163	0.00772253	0.00758264	-0.00110644	1	6.58627e-06	-8.3897e-09
2	0	0	0	0	13.9163	0.00272235	0.00258097	-0.00105254	1	6.47797e-06	-2.71659e-09
2	0	0	0	0	14.0163	-0.00227783	-0.00239419	-0.000996124	1	6.3752e-06	2.38491e-09
2	0	0	0	0	14.1163	-0.00727801	-0.00748491	-0.000939715	1	6.2781e-06	7.03369e-09
2	0	0	0	0	14.2163	-0.0122782	-0.0124399	-0.000886542	1	6.18648e-06	1.10285e-08
2	0	0	0	0	14.3163	-0.0172784	-0.0173653	-0.000837547	1	6.09997e-06	1.45442e-08
2	0	0	0	0	14.4163	-0.0222786	-0.022438	-0.000792462	1	6.01817e-06	1.77812e-08
2	0	0	0	0	14.5163	-0.0272787	-0.0274216	-0.000752437	1	5.94063e-06	2.0633e-08
2	0	0	0	0	14.6163	-0.0322789	-0.0323766	-0.000716323	1	5.86696e-06	2.31921e-08
2	0	0	0	0	14.7163	-0.0372791	-0.037443	-0.000682602	1	5.79675e-06	2.55587e-08
2	0	0	0	0	14.8163	-0.0422793	-0.0424065	-0.000653097	1	5.72964e-06	2.76955e-08
2	0	0	0	0	14.9163	-0.0472795	-0.0474548	-0.000626525	1	5.66534e-06	2.97316e-08
2	0	0	0	0	15.0163	-0.0522796	-0.052484	-0.000607089	1	5.60356e-06	3.18625e-08
2	0	0	0	0	15.1163	-0.0572798	-0.0573977	-0.000580332	1	5.54406e-06	3.33097e-08
2	0	0	0	0	15.2163	-0.06228	-0.062463	-0.000559849	1	5.48665e-06	3.49698e-08
2	0	0	0	0	15.3163	-0.0672802	-0.0674021	-0.000543299	1	5.43112e-06	3.66195e-08
2	0	0	0	0	15.4163	-0.0722804	-0.0724101	-0.000527327	1	5.37733e-06	3.81839e-08
2	0	0	0	0	15.5163	-0.0772806	-0.0774044	-0.00051014	1	5.32516e-06	3.94871e-08
2	0	0	0	0	15.6163	-0.0822807	-0.0824993	-0.00049762	1	5.27442e-06	4.10533e-08
2	0	0	0	0	15.7163	-0.0872809	-0.08743	-0.000485051	1	5.22506e-06	4.2408e-08
2	0	0	0	0	15.8163	-0.0922811	-0.092491	-0.000472744	1	5.17693e-06	4.37246e-08
2	0	0	0	0	15.9163	-0.0972813	-0.0974418	-0.000460967	1	5.12998e-06	4.49175e-08
2	0	0	1	0	16.0165	-0.102281	-0.102415	-0.000449147	1	5.08404e-06	4.59993e-08
2	0	0	1	0	16.1165	-0.107282	-0.107447	-0.000440753	1	5.03919e-06	4.73577e-08
2	0	0	1	0	16.2165	-0.112282	-0.112391	-0.000430676	1	4.99528e-06	4.84039e-08
2	0	0	1	0	16.3165	-0.117282	-0.117412	-0.000423144	1	4.95224e-06	4.96823e-08
2	0	0	1	0	16.4165	-0.122282	-0.122379	-0.000414435	1	4.91004e-06	5.07182e-08
2	0	0	1	0	16.5165	-0.127282	-0.12739	-0.000408016	1	4.8686e-06	5.19773e-08
2	0	0	1	0	16.6165	-0.132283	-0.13242	-0.000400827	1	4.82788e-06	5.30773e-08
2	0	0	1	0	16.7165	-0.137283	-0.137443	-0.000393219	1	4.78786e-06	5.40454e-08
2	0	0	1	0	16.8165	-0.142283	-0.142387	-0.000387522	1	4.74847e-06	5.51781e-08
2	0	0	1	0	16.9165	-0.147283	-0.147332	-0.000381605	1	4.70969e-06	5.62228e-08
2	0	0	1	0	17.0165	-0.152283	-0.152369	-0.000375947	1	4.67147e-06	5.72827e-08
2	0	0	1	0	17.1165	-0.157283	-0.157399	-0.00037083	1	4.63375e-06	5.83684e-08
2	0	0	1	0	17.2165	-0.162284	-0.162407	-0.000365266	1	4.59654e-06	5.93218e-08
2	0	0	1	0	17.3165	-0.167284	-0.167417	-0.000362985	1	4.5598e-06	6.07701e-08
2	0	0	1	0	17.4165	-0.172284	-0.172442	-0.000359467	1	4.52346e-06	6.19873e-08
2	0	0	1	0	17.5165	-0.177284	-0.177408	-0.000353592	1	4.48752e-06	6.273e-08
2	0	0	1	0	17.6165	-0.182284	-0.182387	-0.000350884	1	4.45192e-06	6.39968e-08
2	0	0	1	0	17.7165	-0.187285	-0.18735	-0.000348349	1	4.41664e-06	6.52632e-08
2	0	0	1	0	17.8165	-0.192285	-0.19236	-0.000344908	1	4.38164e-06	6.63466e-08
2	0	0	1	0	17.9165	-0.197285	-0.197376	-0.00034303	1	4.3469e-06	6.77058e-08
2	1	0	1	1	17.9969	-0.198685	-0.198782	-0.000228088	1	4.32199e-06	4.53398e-08
2	1	0	1	1	18.0969	-0.193685	-0.193801	-0.000198432	1	4.30105e-06	3.84562e-08
2	1	0	1	1	18.1969	-0.188685	-0.188736	-0.000183066	1	4.28223e-06	3.4551e-08
2	1	0	1	1	18.2969	-0.183684	-0.183738	-0.000169293	1	4.26487e-06	3.11056e-08
2	1	0	1	1	18.3969	-0.178684	-0.178778	-0.000157801	1	4.24868e-06	2.82113e-08
2	1	0	1	1	18.4969	-0.173684	-0.173776	-0.000148474	1	4.23348e-06	2.58013e-08
2	1	0	1	1	18.5969	-0.168684	-0.168739	-0.000141794	1	4.21916e-06	2.39262e-08
2	1	0	1	1	18.6969	-0.163684	-0.163749	-0.000134663	1	4.20562e-06	2.2051e-08
2	1	0	1	1	18.7969	-0.158684	-0.158745	-0.000127845	1	4.19279e-06	2.02946e-08
2	1	0	1	1	18.8969	-0.153683	-0.153701	-0.000121235	1	4.18062e-06	1.86338e-08
2	1	0	1	1	18.9969	-0.148683	-0.14877	-0.000115577	1	4.16905e-06	1.71944e-08
2	1	0	1	1	19.0969	-0.143683	-0.143748	-0.000110061	1	4.15805e-06	1.5821e-08
2	1	0	1	1	19.1969	-0.138683	-0.138767	-0.000104601	1	4.1476e-06	1.45151e-08
2	1	0	1	1	19.2969	-0.133683	-0.133668	-9.79236e-05	1	4.13763e-06	1.30893e-08
2	1	0	1	1	19.3969	-0.128682	-0.128771	-9.44526e-05	1	4.12815e-06	1.21627e-08
2	1	0	1	1	19.4969	-0.123682	-0.123738	-9.21758e-05	1	4.11911e-06	1.14057e-08
2	1	0	1	1	19.5969	-0.118682	-0.118805	-8.55129e-05	1	4.11051e-06	1.01594e-08
2	1	0	1	1	19.6969	-0.113682	-0.113758	-8.20084e-05	1	4.10233e-06	9.32913e-09
2	1	0	1	1	19.7969	-0.108682	-0.108741	-7.8684e-05	1	4.09453e-06	8.55615e-09
2	1	0	1	1	19.8969	-0.103682	-0.103742	-7.57819e-05	1	4.0871e-06	7.86177e-09
2	1	0	1	1	19.9869	-0.0991814	-0.0992949	-7.26147e-05	2	4.08073e-06	7.21027e-09
2	1	0	0	1	20.0871	-0.0941812	-0.0942869	-6.69075e-05	2	4.07396e-06	6.3085e-09
2	1	0	0	1	20.1871	-0.089181	-0.0892778	-6.59695e-05	2	4.06755e-06	5.88961e-09
2	1	0	0	1	20.2871	-0.0841808	-0.0842698	-6.16083e-05	2	4.06146e-06	5.19172e-09
2	1	0	0	1	20.3871	-0.0791806	-0.0793063	-5.75297e-05	2	4.05568e-06	4.56246e-09
2	1	0	0	1	20.4871	-0.0741804	-0.074329	-5.62208e-05	2	4.05023e-06	4.17883e-09
2	1	0	0	1	20.5871	-0.0691803	-0.0693559	-5.35518e-05	2	4.04509e-06	3.71413e-09
2	1	0	0	1	20.6871	-0.0641801	-0.0642843	-4.96851e-05	2	4.04024e-06	3.19397e-09
2	1	0	0	1	20.7871	-0.0591799	-0.0593134	-4.66416e-05	2	4.03572e-06	2.76647e-09
2	1	0	0	1	20.8871	-0.0541797	-0.0543382	-4.42093e-05	2	4.03149e-06	2.40225e-09
2	1	0	0	1	20.9871	-0.0491795	-0.049274	-4.01854e-05	2	4.02765e-06	1.9801e-09
2	1	0	0	1	21.0871	-0.0441794	-0.0442871	-3.6446e-05	2	4.02411e-06	1.61409e-09
2	1	0	0	1	21.1871	-0.0391792	-0.0393046	-3.19894e-05	2	4.02095e-06	1.25733e-09
2	1	0	0	1	21.2871	-0.034179	-0.0343029	-2.88081e-05	2	4.0182e-06	9.882e-10
2	1	0	0	1	21.3871	-0.0291788	-0.0293044	-2.33817e-05	2	4.01591e-06	6.85187e-10
2	1	0	0	1	21.4871	-0.0241786	-0.024272	-1.77416e-05	2	4.01418e-06	4.30624e-10
2	1	0	0	1	21.5871	-0.0191784	-0.0192947	-1.06849e-05	2	4.01308e-06	2.06161e-10
2	1	0	0	1	21.6871	-0.0141783	-0.0143005	-2.3404e-06	2	4.01276e-06	3.34688e-11
2	1	0	0	1	21.7871	-0.00917808	-0.00929348	8.73314e-06	2	4.01342e-06	-8.11613e-11
2	1	0	0	1	21.8871	-0.0041779	-0.00429181	2.29279e-05	2	4.01533e-06	-9.84022e-11
2	1	0	0	1	21.9871	0.000822279	0.000735298	4.15828e-05	2	4.01887e-06	3.05757e-11
2	1	0	0	1	22.0871	0.00582246	0.00574863	6.44329e-05	2	4.02441e-06	3.70401e-10
2	1	0	0	1	22.1871	0.0108226	0.0107323	9.36297e-05	2	4.03259e-06	1.00486e-09
2	1	0	0	1	22.2871	0.0158228	0.0157117	0.000131106	2	4.04416e-06	2.05989e-09
2	1	0	0	1	22.3871	0.020823	0.0207017	0.000181785	2	4.06007e-06	3.76326e-09
2	1	0	0	1	22.4871	0.0258232	0.0257341	0.000241989	2	4.08143e-06	6.22737e-09
2	1	0	0	1	22.5871	0.0308234	0.0307633	0.000315374	2	4.10958e-06	9.70196e-09
2	1	0	0	1	22.6871	0.0358235	0.0357671	0.000408463	2	4.14598e-06	1.46095e-08
2	1	0	0	1	22.7871	0.0408237	0.0407274	0.00051222	2	4.19215e-06	2.08614e-08
2	1	0	0	1	22.8871	0.0458239	0.0457492	0.000630863	2	4.24953e-06	2.88615e-08
2	1	0	0	1	22.9871	0.0508241	0.0507392	0.000761462	2	4.31934e-06	3.8636e-08
2	1	0	0	1	23.0871	0.0558242	0.0558225	0.000894499	2	4.4024e-06	4.99332e-08
2	1	0	0	1	23.1871	0.0608244	0.0607595	0.0010255	2	4.49877e-06	6.23092e-08
2	1	0	0	1	23.2871	0.0658246	0.0657432	0.00114822	2	4.60792e-06	7.54875e-08
2	1	0	0	1	23.3871	0.0708248	0.0707353	0.0012546	2	4.72853e-06	8.87442e-08
2	1	0	0	1	23.4871	0.075825	0.0757804	0.00133889	2	4.85869e-06	1.01462e-07
2	1	0	0	1	23.5871	0.0808251	0.0806941	0.00139801	2	4.99606e-06	1.12812e-07
2	1	0	0	1	23.6871	0.0858253	0.0857732	0.00143142	2	5.13807e-06	1.22778e-07
2	1	0	0	1	23.7871	0.0908255	0.0907982	0.00144242	2	5.28234e-06	1.3097e-07
2	1	0	0	1	23.8871	0.0958257	0.0957564	0.00143463	2	5.42666e-06	1.37375e-07
2	1	0	0	1	23.9871	0.100826	0.100781	0.00141199	2	5.56933e-06	1.42302e-07
2	1	0	0	1	24.0871	0.105826	0.105734	0.00137695	2	5.7091e-06	1.45591e-07
2	1	0	0	1	24.1871	0.110826	0.110749	0.001336	2	5.84515e-06	1.4796e-07
2	1	0	0	1	24.2871	0.115826	0.115735	0.00129242	2	5.97698e-06	1.49579e-07
2	1	0	0	1	24.3871	0.120827	0.120674	0.00124915	2	6.10441e-06	1.50739e-07
2	1	0	0	1	24.4871	0.125827	0.125724	0.00120606	2	6.22744e-06	1.5163e-07
2	1	0	0	1	24.5871	0.130827	0.130727	0.00116407	2	6.34625e-06	1.52174e-07
2	1	0	0	1	24.6871	0.135827	0.135712	0.00112476	2	6.461e-06	1.52644e-07
2	1	0	0	1	24.7871	0.140827	0.140682	0.00108963	2	6.57197e-06	1.53291e-07
2	1	0	0	1	24.8871	0.145827	0.145687	0.00105509	2	6.67943e-06	1.53713e-07
2	1	0	0	1	24.9871	0.150828	0.150702	0.00102358	2	6.78365e-06	1.54255e-07
2	1	0	0	1	25.0871	0.155828	0.155759	0.000994465	2	6.88495e-06	1.54897e-07
2	1	0	0	1	25.1871	0.160828	0.160711	0.000969698	2	6.98349e-06	1.55841e-07
2	1	0	0	1	25.2871	0.165828	0.16572	0.000946061	2	7.07953e-06	1.56781e-07
2	1	0	0	1	25.3871	0.170828	0.170675	0.000922539	2	7.17327e-06	1.57455e-07
2	1	0	0	1	25.4871	0.175829	0.175764	0.00090351	2	7.2649e-06	1.58804e-07
2	1	0	1	1	25.5873	0.180829	0.180756	0.000885701	2	7.35475e-06	1.60096e-07
2	1	0	1	1	25.6873	0.185829	0.185731	0.000867583	2	7.44262e-06	1.61137e-07
2	1	0	1	1	25.7873	0.190829	0.190711	0.000850838	2	7.52883e-06	1.62264e-07
2	1	0	1	1	25.8873	0.195829	0.195697	0.000835982	2	7.61355e-06	1.636e-07
2	1	0	1	1	25.9873	0.200829	0.200694	0.0008234	2	7.69687e-06	1.65251e-07
2	1	0	1	1	26.0873	0.20583	0.205778	0.000810687	2	7.77894e-06	1.66822e-07
2	1	0	1	1	26.1873	0.21083	0.210717	0.000799167	2	7.8598e-06	1.68398e-07
2	1	0	1	1	26.2873	0.21583	0.215733	0.00078969	2	7.93958e-06	1.70362e-07
2	1	0	1	1	26.3873	0.22083	0.220793	0.000781371	2	8.01837e-06	1.72521e-07
2	1	0	1	1	26.4873	0.22583	0.225723	0.000771387	2	8.09624e-06	1.7412e-07
2	1	0	1	1	26.5873	0.230831	0.230791	0.000763157	2	8.17326e-06	1.7613e-07
2	1	0	1	1	26.6873	0.235831	0.235739	0.000755048	2	8.24948e-06	1.77995e-07
2	1	0	1	1	26.7873	0.240831	0.240803	0.000750354	2	8.32499e-06	1.80687e-07
2	1	0	1	1	26.8873	0.245831	0.245759	0.000743199	2	8.39986e-06	1.82648e-07
2	1	0	1	1	26.9873	0.250831	0.250713	0.000737585	2	8.47415e-06	1.84922e-07
2	1	0	1	1	27.0873	0.255831	0.255741	0.000732604	2	8.54793e-06	1.87357e-07
2	1	0	1	1	27.1873	0.260832	0.260679	0.000729149	2	8.62125e-06	1.90074e-07
2	1	0	1	1	27.2873	0.265832	0.265738	0.000725046	2	8.69417e-06	1.92672e-07
2	1	0	1	1	27.3873	0.270832	0.270755	0.000720361	2	8.7668e-06	1.95042e-07
2	1	0	1	1	27.4873	0.275832	0.275734	0.000720543	2	8.83915e-06	1.98678e-07
2	1	0	1	1	27.5873	0.280832	0.280755	0.000720354	2	8.91133e-06	2.02243e-07
2	1	0	1	1	27.6873	0.285832	0.285688	0.00071742	2	8.98339e-06	2.04958e-07
2	1	0	1	1	27.7873	0.290833	0.290742	0.000716779	2	9.05537e-06	2.08398e-07
2	1	0	1	1	27.8873	0.295833	0.29572	0.000716669	2	9.12739e-06	2.11934e-07
2	0	0	0	1	27.9767	0.299733	0.299614	0.000622891	2	9.1912e-06	1.86627e-07
2	0	0	0	1	28.0767	0.294733	0.294577	0.000568663	2	9.24993e-06	1.67515e-07
2	0	0	0	1	28.1767	0.289733	0.289602	0.000538873	2	9.30505e-06	1.56059e-07
2	0	0	0	1	28.2767	0.284732	0.284629	0.000518941	2	9.35775e-06	1.47706e-07
2	0	0	0	1	28.3767	0.279732	0.279615	0.000501224	2	9.40855e-06	1.4015e-07
2	0	0	0	1	28.4767	0.274732	0.274594	0.000486884	2	9.45774e-06	1.33695e-07
2	0	0	0	1	28.5767	0.269732	0.269601	0.00047501	2	9.50557e-06	1.28063e-07
2	0	0	0	1	28.6767	0.264732	0.26459	0.000462902	2	9.55217e-06	1.22479e-07
2	0	0	0	1	28.7767	0.259732	0.259596	0.000450496	2	9.59769e-06	1.16947e-07
2	0	0	0	1	28.8767	0.254731	0.25458	0.000441256	2	9.6422e-06	1.12335e-07
2	0	0	0	1	28.9767	0.249731	0.249605	0.000433021	2	9.6858e-06	1.08084e-07
2	0	0	0	1	29.0767	0.244731	0.244562	0.000426486	2	9.72856e-06	1.04302e-07
2	0	0	0	1	29.1767	0.239731	0.2396	0.000417152	2	9.77053e-06	9.99498e-08
2	0	0	0	1	29.2767	0.234731	0.234585	0.00041113	2	9.81174e-06	9.6445e-08
2	0	0	0	1	29.3767	0.22973	0.229577	0.00040276	2	9.85225e-06	9.24643e-08
2	0	0	0	1	29.4767	0.22473	0.224593	0.000395954	2	9.89205e-06	8.89285e-08
2	0	0	0	1	29.5767	0.21973	0.219584	0.000390789	2	9.93121e-06	8.5811e-08
2	0	0	0	1	29.6767	0.21473	0.214549	0.000384239	2	9.96973e-06	8.24379e-08
2	0	0	0	1	29.7767	0.20973	0.209576	0.00037826	2	1.00076e-05	7.9274e-08
2	0	0	0	1	29.8767	0.20473	0.204614	0.000371335	2	1.00449e-05	7.59805e-08
2	0	0	0	1	29.9767	0.199729	0.199584	0.000366515	2	1.00816e-05	7.31505e-08
2	0	0	0	1	30.0767	0.194729	0.19459	0.000358453	2	1.01177e-05	6.97512e-08
2	0	0	0	1	30.1767	0.189729	0.189549	0.000354189	2	1.01532e-05	6.71361e-08
2	0	0	0	1	30.2767	0.184729	0.184573	0.00034813	2	1.01881e-05	6.42553e-08
2	0	0	0	1	30.3767	0.179729	0.17955	0.00034098	2	1.02223e-05	6.12228e-08
2	0	0	1	1	30.4769	0.174729	0.174615	0.000335658	2	1.02561e-05	5.86108e-08
2	0	0	1	1	30.5769	0.169728	0.169614	0.000330244	2	1.02891e-05	5.6014e-08
2	0	0	1	1	30.6769	0.164728	0.164602	0.000322608	2	1.03215e-05	5.31018e-08
2	0	0	1	1	30.7769	0.159728	0.159566	0.000315881	2	1.03533e-05	5.0404e-08
2	0	0	1	1	30.8769	0.154728	0.154657	0.000308823	2	1.03843e-05	4.77615e-08
2	0	0	1	1	30.9769	0.149728	0.14954	0.000300547	2	1.04146e-05	4.49437e-08
2	0	0	1	1	31.0769	0.144727	0.144576	0.000292354	2	1.04441e-05	4.22675e-08
2	0	0	1	1	31.1769	0.139727	0.139573	0.000282005	2	1.04727e-05	3.93604e-08
2	0	0	1	1	31.2769	0.134727	0.134614	0.000272922	2	1.05004e-05	3.67392e-08
2	0	0	1	1	31.3769	0.129727	0.129623	0.000261552	2	1.0527e-05	3.39032e-08
2	0	0	1	1	31.4769	0.124727	0.124554	0.000249178	2	1.05524e-05	3.10361e-08
2	0	0	1	1	31.5769	0.119727	0.119576	0.000232737	2	1.05764e-05	2.78298e-08
2	0	0	1	1	31.6769	0.114726	0.114615	0.000214209	2	1.05987e-05	2.45516e-08
2	0	0	1	1	31.7769	0.109726	0.109602	0.00019415	2	1.0619e-05	2.12791e-08
2	0	0	1	1	31.8769	0.104726	0.104585	0.000168936	2	1.06369e-05	1.76682e-08
2	0	0	1	1	31.9769	0.0997258	0.0995993	0.000135521	2	1.0652e-05	1.34978e-08
2	0	0	1	1	32.0769	0.0947256	0.0946347	9.75846e-05	2	1.06635e-05	9.2349e-09
2	0	0	1	1	32.1769	0.0897255	0.089578	4.91182e-05	2	1.06707e-05	4.39991e-09
2	0	0	1	1	32.2769	0.0847253	0.0845933	-1.01938e-05	2	1.06726e-05	-8.62326e-10
2	0	0	1	1	32.3769	0.0797251	0.0796414	-8.31936e-05	2	1.06679e-05	-6.62566e-09
2	0	0	1	1	32.4769	0.0747249	0.0746747	-0.000166559	2	1.06554e-05	-1.24377e-08
2	0	0	1	1	32.5769	0.0697248	0.0696444	-0.000266455	2	1.06337e-05	-1.85571e-08
2	0	0	1	1	32.6769	0.0647246	0.0646226	-0.000383158	2	1.06011e-05	-2.47607e-08
2	0	0	1	1	32.7769	0.0597244	0.0596793	-0.00050987	2	1.05562e-05	-3.04287e-08
2	0	0	1	1	32.8769	0.0547242	0.0545928	-0.000646162	2	1.04981e-05	-3.52758e-08
2	0	0	1	1	32.9769	0.049724	0.0496357	-0.000787793	2	1.04261e-05	-3.91026e-08
2	0	0	1	1	33.0769	0.0447239	0.0446457	-0.000920246	2	1.03404e-05	-4.1085e-08
2	0	0	1	1	33.1769	0.0397237	0.0396334	-0.00103666	2	1.02422e-05	-4.10864e-08
2	0	0	1	1	33.2769	0.0347235	0.0345882	-0.00113015	2	1.01334e-05	-3.90898e-08
2	0	0	1	1	33.3769	0.0297233	0.0296014	-0.00119332	2	1.00168e-05	-3.5324e-08
2	0	0	1	1	33.4769	0.0247231	0.0246178	-0.00122741	2	9.89528e-06	-3.02162e-08
2	0	0	1	1	33.5769	0.019723	0.0196363	-0.00123166	2	9.77195e-06	-2.41852e-08
2	0	0	1	1	33.6769	0.0147228	0.0146346	-0.00121161	2	9.6495e-06	-1.77314e-08
2	0	0	1	1	33.7769	0.0097226	0.00960006	-0.00117301	2	9.52997e-06	-1.1261e-08
2	0	0	1	1	33.8769	0.00472242	0.00464504	-0.00112445	2	9.41486e-06	-5.22313e-09
2	0	0	1	1	33.9769	-0.00027776	-0.000369352	-0.00107036	2	9.30495e-06	3.95339e-10
2	0	0	1	1	34.0769	-0.00527794	-0.00538798	-0.00101358	2	9.20047e-06	5.46118e-09
2	0	0	1	1	34.1769	-0.0102781	-0.0104437	-0.000959024	2	9.10162e-06	1.00158e-08
2	0	0	1	1	34.2769	-0.0152783	-0.0154284	-0.000909127	2	9.00806e-06	1.40264e-08
2	0	0	1	1	34.3769	-0.0202785	-0.0204089	-0.000860984	2	8.91944e-06	1.75717e-08
2	0	0	1	1	34.4769	-0.0252787	-0.0254053	-0.000817905	2	8.83536e-06	2.07791e-08
2	0	0	1	1	34.5769	-0.0302788	-0.0304356	-0.000777287	2	8.75538e-06	2.36571e-08
2	0	0	1	1	34.6769	-0.035279	-0.0354287	-0.000744622	2	8.67911e-06	2.6381e-08
2	0	0	1	1	34.7769	-0.0402792	-0.040424	-0.000713451	2	8.60618e-06	2.88406e-08
2	0	0	1	1	34.8769	-0.0452794	-0.0453823	-0.000682504	2	8.53625e-06	3.09735e-08
2	0	0	1	1	34.9769	-0.0502796	-0.0504284	-0.000657221	2	8.46904e-06	3.31426e-08
2	0	0	1	1	35.0769	-0.0552798	-0.0554269	-0.000633679	2	8.40424e-06	3.51229e-08
2	0	0	1	1	35.1769	-0.0602799	-0.0604519	-0.000613337	2	8.3417e-06	3.70774e-08
2	0	0	1	1	35.2769	-0.0652801	-0.0654059	-0.000594315	2	8.28119e-06	3.88717e-08
2	0	0	1	1	35.3769	-0.0702803	-0.0704447	-0.000575317	2	8.22255e-06	4.0528e-08
2	0	0	1	1	35.4769	-0.0752805	-0.0754018	-0.000560578	2	8.16561e-06	4.22686e-08
2	0	0	1	1	35.5769	-0.0802807	-0.0804724	-0.000544983	2	8.11025e-06	4.3856e-08
2	0	0	1	1	35.6769	-0.0852808	-0.0853988	-0.000530749	2	8.05637e-06	4.53253e-08
2	0	0	1	1	35.7769	-0.090281	-0.0904015	-0.000516764	2	8.00383e-06	4.67163e-08
2	0	0	1	1	35.8769	-0.0952812	-0.0954307	-0.000505723	2	7.95254e-06	4.82615e-08
2	0	0	0	1	35.9771	-0.100281	-0.100371	-0.000494299	2	7.90232e-06	4.96133e-08
2	0	0	0	1	36.0771	-0.105282	-0.10543	-0.000483037	2	7.85329e-06	5.09265e-08
2	0	0	0	1	36.1771	-0.110282	-0.11041	-0.000473943	2	7.80528e-06	5.23282e-08
2	0	0	0	1	36.2771	-0.115282	-0.11541	-0.000465726	2	7.75821e-06	5.37494e-08
2	0	0	0	1	36.3771	-0.120282	-0.120352	-0.000455799	2	7.71202e-06	5.48564e-08
2	0	0	0	1	36.4771	-0.125282	-0.125411	-0.000446047	2	7.66669e-06	5.59392e-08
2	0	0	0	1	36.5771	-0.130282	-0.130392	-0.000438674	2	7.62214e-06	5.71994e-08
2	0	0	0	1	36.6771	-0.135283	-0.135393	-0.000431615	2	7.57835e-06	5.84378e-08
2	0	0	0	1	36.7771	-0.140283	-0.140374	-0.00042588	2	7.53525e-06	5.97823e-08
2	0	0	0	1	36.8771	-0.145283	-0.145386	-0.000419772	2	7.49283e-06	6.10289e-08
2	0	0	0	1	36.9771	-0.150283	-0.150382	-0.000413086	2	7.45103e-06	6.21208e-08
2	0	0	0	1	37.0771	-0.155283	-0.155408	-0.000407137	2	7.40981e-06	6.32724e-08
2	0	0	0	1	37.1771	-0.160284	-0.160426	-0.000401299	2	7.36915e-06	6.43787e-08
2	0	0	0	1	37.2771	-0.165284	-0.165425	-0.000396619	2	7.32902e-06	6.5611e-08
2	0	0	0	1	37.3771	-0.170284	-0.170434	-0.000392271	2	7.28935e-06	6.6856e-08
2	0	0	0	1	37.4771	-0.175284	-0.175411	-0.000388685	2	7.25012e-06	6.81795e-08
2	0	0	0	1	37.5771	-0.180284	-0.180394	-0.000386351	2	7.2113e-06	6.96956e-08
2	0	0	0	1	37.6771	-0.185284	-0.185455	-0.000380296	2	7.17284e-06	7.0528e-08
2	0	0	0	1	37.7771	-0.190285	-0.190418	-0.000377226	2	7.13471e-06	7.18306e-08
2	0	0	0	1	37.8771	-0.195285	-0.195424	-0.000374864	2	7.09686e-06	7.32575e-08
2	0	0	0	1	37.971	-0.20001	-0.200117	-0.000369707	2	7.06159e-06	7.39846e-08
2	1	0	0	0	38.0575	-0.195685	-0.195798	-0.000235047	2	7.04014e-06	4.60218e-08
2	1	0	0	0	38.1575	-0.190685	-0.190776	-0.000215686	2	7.018e-06	4.11477e-08
2	1	0	0	0	38.2575	-0.185685	-0.185833	-0.000201433	2	6.99747e-06	3.74328e-08
2	1	0	0	0	38.3575	-0.180684	-0.180816	-0.000191548	2	6.9782e-06	3.4635e-08
2	1	0	0	0	38.4575	-0.175684	-0.175821	-0.000181626	2	6.96002e-06	3.19337e-08
2	1	0	0	0	38.5575	-0.170684	-0.170805	-0.000172561	2	6.94276e-06	2.94742e-08
2	1	0	0	0	38.6575	-0.165684	-0.165798	-0.000162756	2	6.92633e-06	2.69845e-08
2	1	0	0	0	38.7575	-0.160684	-0.160719	-0.000157571	2	6.91065e-06	2.53246e-08
2	1	0	0	0	38.8575	-0.155683	-0.155807	-0.000150908	2	6.89566e-06	2.35126e-08
2	1	0	0	0	38.9575	-0.150683	-0.150782	-0.000144375	2	6.88134e-06	2.17691e-08
2	1	0	0	0	39.0575	-0.145683	-0.145732	-0.000136968	2	6.8676e-06	1.99606e-08
2	1	0	0	0	39.1575	-0.140683	-0.140697	-0.000132254	2	6.85444e-06	1.86077e-08
2	1	0	0	0	39.2575	-0.135683	-0.135773	-0.000129325	2	6.84181e-06	1.75588e-08
2	1	0	0	0	39.3575	-0.130683	-0.130775	-0.000121668	2	6.82968e-06	1.59111e-08
2	1	0	0	0	39.4575	-0.125682	-0.125694	-0.00011755	2	6.81807e-06	1.47754e-08
2	1	0	0	0	39.5575	-0.120682	-0.120745	-0.00011413	2	6.80691e-06	1.37807e-08
2	1	0	0	0	39.6575	-0.115682	-0.115771	-0.000108821	2	6.7962e-06	1.25983e-08
2	1	0	0	0	39.7575	-0.110682	-0.110752	-0.000104548	2	6.7859e-06	1.15788e-08
2	1	0	0	0	39.8575	-0.105682	-0.105809	-0.000100331	2	6.77601e-06	1.0616e-08
2	1	0	0	0	39.9575	-0.100681	-0.100748	-9.73972e-05	2	6.76651e-06	9.81261e-09
2	1	0	1	0	40.0477	-0.0961812	-0.0962799	-9.3142e-05	3	6.75824e-06	8.9677e-09
2	1	0	1	0	40.1477	-0.0911811	-0.0913312	-8.94237e-05	3	6.74943e-06	8.16718e-09
2	1	0	1	0	40.2477	-0.0861809	-0.0862978	-8.55765e-05	3	6.74097e-06	7.38506e-09
2	1	0	1	0	40.3477	-0.0811807	-0.0812431	-8.25683e-05	3	6.73285e-06	6.70811e-09
2	1	0	1	0	40.4477	-0.0761805	-0.0762849	-7.93606e-05	3	6.72507e-06	6.05401e-09
2	1	0	1	0	40.5477	-0.0711803	-0.0712663	-7.45825e-05	3	6.71761e-06	5.31521e-09
2	1	0	1	0	40.6477	-0.0661801	-0.0662911	-7.19046e-05	3	6.71049e-06	4.76664e-09
2	1	0	1	0	40.7477	-0.06118	-0.0612958	-6.93239e-05	3	6.70369e-06	4.24926e-09
2	1	0	1	0	40.8477	-0.0561798	-0.0562962	-6.55968e-05	3	6.69723e-06	3.69285e-09
2	1	0	1	0	40.9477	-0.0511796	-0.0512108	-6.28518e-05	3	6.69113e-06	3.21869e-09
2	1	0	1	0	41.0477	-0.0461794	-0.0462834	-5.82892e-05	3	6.68537e-06	2.69782e-09
2	1	0	1	0	41.1477	-0.0411792	-0.0412923	-5.4949e-05	3	6.67999e-06	2.26897e-09
2	1	0	1	0	41.2477	-0.0361791	-0.0363118	-5.03934e-05	3	6.67505e-06	1.82988e-09
2	1	0	1	0	41.3477	-0.0311789	-0.0312837	-4.40309e-05	3	6.67057e-06	1.37745e-09
2	1	0	1	0	41.4477	-0.0261787	-0.0263011	-3.9032e-05	3	6.66662e-06	1.02658e-09
2	1	0	1	0	41.5477	-0.0211785	-0.0213195	-3.25776e-05	3	6.66331e-06	6.94539e-10
2	1	0	1	0	41.6477	-0.0161783	-0.0163179	-2.33587e-05	3	6.66075e-06	3.81165e-10
2	1	0	1	0	41.7477	-0.0111782	-0.0113151	-1.35199e-05	3	6.65913e-06	1.5298e-10
2	1	0	1	0	41.8477	-0.00617797	-0.00629439	-7.29446e-07	3	6.65865e-06	4.59142e-12
2	1	0	1	0	41.9477	-0.00117779	-0.00129272	1.5018e-05	3	6.65965e-06	-1.9414e-11
2	1	0	1	0	42.0477	0.00382239	0.0036941	3.79493e-05	3	6.6626e-06	1.40189e-10
2	1	0	1	0	42.1477	0.00882256	0.00875408	6.41432e-05	3	6.6679e-06	5.61515e-10
2	1	0	1	0	42.2477	0.0138227	0.0137674	9.951e-05	3	6.67628e-06	1.36999e-09
2	1	0	1	0	42.3477	0.0188229	0.0187744	0.000142259	3	6.68857e-06	2.67081e-09
2	1	0	1	0	42.4477	0.0238231	0.0237124	0.000197337	3	6.70576e-06	4.67933e-09
2	1	0	1	0	42.5477	0.0288233	0.0287862	0.000265002	3	6.7291e-06	7.62839e-09
2	1	0	1	0	42.6477	0.0338235	0.0337507	0.000347109	3	6.7599e-06	1.17152e-08
2	1	0	1	0	42.7477	0.0388236	0.0387673	0.000442862	3	6.79958e-06	1.71685e-08
2	1	0	1	0	42.8477	0.0438238	0.0437361	0.000553338	3	6.8496e-06	2.42008e-08
2	1	0	1	0	42.9477	0.048824	0.0487377	0.000675576	3	6.91117e-06	3.2926e-08
2	1	0	1	0	43.0477	0.0538242	0.0537754	0.000803194	3	6.9854e-06	4.31921e-08
2	1	0	1	0	43.1477	0.0588244	0.0587548	0.00093336	3	7.07253e-06	5.48394e-08
2	1	0	1	0	43.2477	0.0638245	0.0637205	0.00105645	3	7.17243e-06	6.73178e-08
2	1	0	1	0	43.3477	0.0688247	0.068703	0.00116952	3	7.28424e-06	8.03495e-08
2	1	0	1	0	43.4477	0.0738249	0.0737132	0.00126359	3	7.40637e-06	9.31433e-08
2	1	0	1	0	43.5477	0.0788251	0.0787816	0.00133478	3	7.53684e-06	1.05156e-07
2	1	0	1	0	43.6477	0.0838253	0.0837102	0.00138423	3	7.67322e-06	1.15874e-07
2	1	0	1	0	43.7477	0.0888254	0.0887606	0.00140849	3	7.81312e-06	1.25019e-07
2	1	0	1	0	43.8477	0.0938256	0.0938004	0.0014086	3	7.9543e-06	1.32127e-07
2	1	0	1	0	43.9477	0.0988258	0.0987183	0.00139315	3	8.09483e-06	1.3753e-07
2	1	0	1	0	44.0477	0.103826	0.103715	0.00136829	3	8.23322e-06	1.41912e-07
2	1	0	1	0	44.1477	0.108826	0.108693	0.00133067	3	8.3684e-06	1.44635e-07
2	1	0	1	0	44.2477	0.113826	0.113717	0.00129015	3	8.4997e-06	1.46712e-07
2	1	0	1	0	44.3477	0.118827	0.118715	0.00124563	3	8.62679e-06	1.47876e-07
2	1	0	1	0	44.4477	0.123827	0.123744	0.00120264	3	8.74955e-06	1.48819e-07
2	1	0	1	0	44.5477	0.128827	0.128776	0.00116174	3	8.86803e-06	1.49605e-07
2	1	0	1	0	44.6477	0.133827	0.13373	0.00112064	3	8.98239e-06	1.49863e-07
2	1	0	1	0	44.7477	0.138827	0.138688	0.00108229	3	9.09285e-06	1.50101e-07
2	1	0	1	0	44.8477	0.143827	0.143687	0.00104884	3	9.19969e-06	1.50705e-07
2	1	0	1	0	44.9477	0.148828	0.148734	0.00101721	3	9.30316e-06	1.51294e-07
2	1	0	1	0	45.0477	0.153828	0.15378	0.000986382	3	9.40356e-06	1.51686e-07
2	1	0	1	0	45.1477	0.158828	0.15873	0.000958966	3	9.50109e-06	1.52217e-07
2	1	0	1	0	45.2477	0.163828	0.163729	0.000935672	3	9.596e-06	1.53197e-07
2	1	0	1	0	45.3477	0.168828	0.168737	0.000910687	3	9.68852e-06	1.53667e-07
2	1	0	1	0	45.4477	0.173828	0.173748	0.000889564	3	9.77881e-06	1.5456e-07
2	1	0	0	0	45.5479	0.178829	0.178757	0.000869982	3	9.86721e-06	1.55515e-07
2	1	0	0	0	45.6479	0.183829	0.18371	0.000852482	3	9.95356e-06	1.56609e-07
2	1	0	0	0	45.7479	0.188829	0.188725	0.000834878	3	1.00382e-05	1.57562e-07
2	1	0	0	0	45.8479	0.193829	0.193734	0.000818453	3	1.01212e-05	1.58562e-07
2	1	0	0	0	45.9479	0.198829	0.198695	0.000805309	3	1.02027e-05	1.60011e-07
2	1	0	0	0	46.0479	0.20383	0.203714	0.000793769	3	1.02829e-05	1.61702e-07
2	1	0	0	0	46.1479	0.20883	0.208716	0.000780069	3	1.03618e-05	1.62813e-07
2	1	0	0	0	46.2479	0.21383	0.213742	0.000768623	3	1.04395e-05	1.64287e-07
2	1	0	0	0	46.3479	0.21883	0.218721	0.000759506	3	1.05162e-05	1.6612e-07
2	1	0	0	0	46.4479	0.22383	0.223669	0.000747927	3	1.05918e-05	1.67288e-07
2	1	0	0	0	46.5479	0.22883	0.228693	0.000740145	3	1.06665e-05	1.69266e-07
2	1	0	0	0	46.6479	0.233831	0.233814	0.000731556	3	1.07404e-05	1.71048e-07
2	1	0	0	0	46.7479	0.238831	0.238728	0.000722583	3	1.08134e-05	1.72501e-07
2	1	0	0	0	46.8479	0.243831	0.24378	0.000717436	3	1.08857e-05	1.74897e-07
2	1	0	0	0	46.9479	0.248831	0.248696	0.000709899	3	1.09572e-05	1.76549e-07
2	1	0	0	0	47.0479	0.253831	0.253764	0.000703632	3	1.10282e-05	1.78556e-07
2	1	0	0	0	47.1479	0.258831	0.258758	0.000697119	3	1.10985e-05	1.80385e-07
2	1	0	0	0	47.2479	0.263832	0.263738	0.000693113	3	1.11684e-05	1.828e-07
2	1	0	0	0	47.3479	0.268832	0.268718	0.000689246	3	1.12378e-05	1.85213e-07
2	1	0	0	0	47.4479	0.273832	0.27374	0.000686727	3	1.13069e-05	1.87984e-07
2	1	0	0	0	47.5479	0.278832	0.27872	0.000683124	3	1.13756e-05	1.904e-07
2	1	0	0	0	47.6479	0.283832	0.283733	0.000680732	3	1.14442e-05	1.93146e-07
2	1	0	0	0	47.7479	0.288833	0.28875	0.000679344	3	1.15125e-05	1.9616e-07
2	1	0	0	0	47.8479	0.293833	0.293722	0.000678925	3	1.15808e-05	1.99415e-07
2	1	0	0	0	47.9479	0.298833	0.298745	0.000679458	3	1.1649e-05	2.02985e-07
2	0	0	1	0	48.0373	0.296733	0.296565	0.000548657	3	1.17021e-05	1.62712e-07
2	0	0	1	0	48.1373	0.291733	0.291568	0.000517787	3	1.17551e-05	1.5097e-07
2	0	0	1	0	48.2373	0.286732	0.286605	0.000497302	3	1.18056e-05	1.42529e-07
2	0	0	1	0	48.3373	0.281732	0.281544	0.000481516	3	1.18543e-05	1.35568e-07
2	0	0	1	0	48.4373	0.276732	0.276623	0.000466438	3	1.19015e-05	1.29028e-07
2	0	0	1	0	48.5373	0.271732	0.271613	0.000454476	3	1.19473e-05	1.23442e-07
2	0	0	1	0	48.6373	0.266732	0.266632	0.000444872	3	1.1992e-05	1.18617e-07
2	0	0	1	0	48.7373	0.261732	0.261585	0.000435106	3	1.20357e-05	1.13817e-07
2	0	0	1	0	48.8373	0.256731	0.256615	0.00042453	3	1.20784e-05	1.08941e-07
2	0	0	1	0	48.9373	0.251731	0.251594	0.000417869	3	1.21203e-05	1.05133e-07
2	0	0	1	0	49.0373	0.246731	0.246586	0.000409594	3	1.21613e-05	1.01e-07
2	0	0	1	0	49.1373	0.241731	0.241559	0.000401023	3	1.22016e-05	9.6871e-08
2	0	0	1	0	49.2373	0.236731	0.236601	0.000393827	3	1.22412e-05	9.31799e-08
2	0	0	1	0	49.3373	0.231731	0.231596	0.000386834	3	1.22801e-05	8.95893e-08
2	0	0	1	0	49.4373	0.22673	0.22653	0.00038086	3	1.23183e-05	8.62762e-08
2	0	0	1	0	49.5373	0.22173	0.221531	0.000374979	3	1.23559e-05	8.30694e-08
2	0	0	1	0	49.6373	0.21673	0.216598	0.00036814	3	1.23929e-05	7.97383e-08
2	0	0	1	0	49.7373	0.21173	0.211596	0.000362752	3	1.24292e-05	7.6757e-08
2	0	0	1	0	49.8373	0.20673	0.206536	0.000357054	3	1.2465e-05	7.37446e-08
2	0	0	1	0	49.9373	0.201729	0.201588	0.000352039	3	1.25002e-05	7.09667e-08
2	0	0	1	0	50.0373	0.196729	0.196632	0.000345242	3	1.25348e-05	6.78858e-08
2	0	0	1	0	50.1373	0.191729	0.191662	0.000339339	3	1.25689e-05	6.50382e-08
2	0	0	1	0	50.2373	0.186729	0.186646	0.000333542	3	1.26024e-05	6.22542e-08
2	0	0	1	0	50.3373	0.181729	0.181609	0.000328094	3	1.26352e-05	5.9585e-08
2	0	0	0	0	50.4375	0.176729	0.176566	0.000320117	3	1.26676e-05	5.65219e-08
2	0	0	0	0	50.5375	0.171728	0.171589	0.000315157	3	1.26993e-05	5.40775e-08
2	0	0	0	0	50.6375	0.166728	0.16661	0.000309476	3	1.27303e-05	5.15618e-08
2	0	0	0	0	50.7375	0.161728	0.161613	0.000303827	3	1.27607e-05	4.91026e-08
2	0	0	0	0	50.8375	0.156728	0.156627	0.000294658	3	1.27905e-05	4.61513e-08
2	0	0	0	0	50.9375	0.151728	0.15161	0.000287875	3	1.28195e-05	4.36447e-08
2	0	0	0	0	51.0375	0.146727	0.146565	0.000281216	3	1.28478e-05	4.12163e-08
2	0	0	0	0	51.1375	0.141727	0.1416	0.00027283	3	1.28752e-05	3.86329e-08
2	0	0	0	0	51.2375	0.136727	0.136547	0.000262531	3	1.29018e-05	3.58477e-08
2	0	0	0	0	51.3375	0.131727	0.131612	0.000252655	3	1.29274e-05	3.32524e-08
2	0	0	0	0	51.4375	0.126727	0.126616	0.000239539	3	1.29518e-05	3.03294e-08
2	0	0	0	0	51.5375	0.121727	0.121549	0.000226685	3	1.2975e-05	2.75534e-08
2	0	0	0	0	51.6375	0.116726	0.116568	0.000210735	3	1.29966e-05	2.45648e-08
2	0	0	0	0	51.7375	0.111726	0.111613	0.000189842	3	1.30164e-05	2.11887e-08
2	0	0	0	0	51.8375	0.106726	0.106563	0.000167629	3	1.30341e-05	1.78631e-08
2	0	0	0	0	51.9375	0.101726	0.101576	0.000138623	3	1.30491e-05	1.40809e-08
2	0	0	0	0	52.0375	0.0967257	0.0966363	0.000101812	3	1.3061e-05	9.83869e-09
2	0	0	0	0	52.1375	0.0917255	0.0916399	5.96725e-05	3	1.3069e-05	5.46838e-09
2	0	0	0	0	52.2375	0.0867254	0.0866414	6.82543e-06	3	1.30722e-05	5.91365e-10
2	0	0	0	0	52.3375	0.0817252	0.081574	-5.61537e-05	3	1.30696e-05	-4.58068e-09
2	0	0	0	0	52.4375	0.076725	0.0766307	-0.000135154	3	1.30599e-05	-1.03569e-08
2	0	0	0	0	52.5375	0.0717248	0.0716597	-0.000227287	3	1.30418e-05	-1.62874e-08
2	0	0	0	0	52.6375	0.0667246	0.0666634	-0.000332973	3	1.30137e-05	-2.21971e-08
2	0	0	0	0	52.7375	0.0617245	0.0616108	-0.000452974	3	1.29742e-05	-2.79081e-08
2	0	0	0	0	52.8375	0.0567243	0.0565932	-0.000584923	3	1.29222e-05	-3.31027e-08
2	0	0	0	0	52.9375	0.0517241	0.051582	-0.000721124	3	1.28567e-05	-3.71971e-08
2	0	0	0	0	53.0375	0.0467239	0.0465496	-0.000856866	3	1.27774e-05	-3.98868e-08
2	0	0	0	0	53.1375	0.0417237	0.0416614	-0.000981275	3	1.26851e-05	-4.08813e-08
2	0	0	0	0	53.2375	0.0367236	0.0366067	-0.00108806	3	1.25812e-05	-3.98303e-08
2	0	0	0	0	53.3375	0.0317234	0.0316231	-0.00116691	3	1.24681e-05	-3.69012e-08
2	0	0	0	0	53.4375	0.0267232	0.0266108	-0.00121503	3	1.23485e-05	-3.2333e-08
2	0	0	0	0	53.5375	0.021723	0.0216007	-0.00123583	3	1.22253e-05	-2.66948e-08
2	0	0	0	0	53.6375	0.0167228	0.016616	-0.00122952	3	1.21015e-05	-2.04297e-08
2	0	0	0	0	53.7375	0.0117227	0.0116355	-0.00120182	3	1.19798e-05	-1.39838e-08
2	0	0	0	0	53.8375	0.00672249	0.00659566	-0.00115813	3	1.18616e-05	-7.63862e-09
2	0	0	0	0	53.9375	0.00172231	0.0016258	-0.00110638	3	1.1748e-05	-1.79875e-09
2	0	0	0	0	54.0375	-0.00327787	-0.00344795	-0.00105307	3	1.16398e-05	3.63092e-09
2	0	0	0	0	54.1375	-0.00827805	-0.00847295	-0.000997595	3	1.1537e-05	8.45257e-09
2	0	0	0	0	54.2375	-0.0132782	-0.0134174	-0.000945174	3	1.14397e-05	1.26817e-08
2	0	0	0	0	54.3375	-0.0182784	-0.0184	-0.000895047	3	1.13475e-05	1.64688e-08
2	0	0	0	0	54.4375	-0.0232786	-0.0233645	-0.000850906	3	1.126e-05	1.9881e-08
2	0	0	0	0	54.5375	-0.0282788	-0.0284478	-0.000811346	3	1.11767e-05	2.3081e-08
2	0	0	0	0	54.6375	-0.033279	-0.0333901	-0.000773346	3	1.10974e-05	2.58221e-08
2	0	0	0	0	54.7375	-0.0382791	-0.0383865	-0.000740622	3	1.10216e-05	2.84299e-08
2	0	0	0	0	54.8375	-0.0432793	-0.0434072	-0.000710379	3	1.09489e-05	3.08356e-08
2	0	0	0	0	54.9375	-0.0482795	-0.0484789	-0.000683396	3	1.0879e-05	3.31303e-08
2	0	0	0	0	55.0375	-0.0532797	-0.0534456	-0.000658468	3	1.08117e-05	3.51922e-08
2	0	0	0	0	55.1375	-0.0582799	-0.0584218	-0.000635722	3	1.07468e-05	3.714e-08
2	0	0	0	0	55.2375	-0.0632801	-0.0634022	-0.000616045	3	1.06839e-05	3.90586e-08
2	0	0	0	0	55.3375	-0.0682802	-0.0684442	-0.000596383	3	1.0623e-05	4.0819e-08
2	0	0	0	0	55.4375	-0.0732804	-0.0734003	-0.000579844	3	1.05639e-05	4.25607e-08
2	0	0	0	0	55.5375	-0.0782806	-0.0784147	-0.000565909	3	1.05064e-05	4.43756e-08
2	0	0	0	0	55.6375	-0.0832808	-0.0834089	-0.000550296	3	1.04505e-05	4.58996e-08
2	0	0	0	0	55.7375	-0.0882809	-0.0884414	-0.000537175	3	1.0396e-05	4.75085e-08
2	0	0	0	0	55.8375	-0.0932811	-0.0934918	-0.000524296	3	1.03428e-05	4.90174e-08
2	0	0	0	0	55.9375	-0.0982813	-0.0984341	-0.000511631	3	1.02908e-05	5.0362e-08
2	0	0	1	0	56.0377	-0.103282	-0.103404	-0.000501351	3	1.02398e-05	5.18416e-08
2	0	0	1	0	56.1377	-0.108282	-0.108416	-0.000491978	3	1.019e-05	5.33384e-08
2	0	0	1	0	56.2377	-0.113282	-0.113361	-0.00048254	3	1.01412e-05	5.47011e-08
2	0	0	1	0	56.3377	-0.118282	-0.118493	-0.000473004	3	1.00933e-05	5.60475e-08
2	0	0	1	0	56.4377	-0.123282	-0.123382	-0.000464809	3	1.00463e-05	5.73491e-08
2	0	0	1	0	56.5377	-0.128282	-0.128444	-0.000455861	3	1.00001e-05	5.85526e-08
2	0	0	1	0	56.6377	-0.133283	-0.133454	-0.000448991	3	9.9547e-06	5.99198e-08
2	0	0	1	0	56.7377	-0.138283	-0.138439	-0.000440663	3	9.91004e-06	6.10049e-08
2	0	0	1	0	56.8377	-0.143283	-0.143378	-0.000433382	3	9.86608e-06	6.21374e-08
2	0	0	1	0	56.9377	-0.148283	-0.148372	-0.000427803	3	9.8228e-06	6.34742e-08
2	0	0	1	0	57.0377	-0.153283	-0.153368	-0.000421466	3	9.78016e-06	6.46392e-08
2	0	0	1	0	57.1377	-0.158283	-0.158378	-0.00041594	3	9.73807e-06	6.58757e-08
2	0	0	1	0	57.2377	-0.163284	-0.163376	-0.000410065	3	9.69656e-06	6.69949e-08
2	0	0	1	0	57.3377	-0.168284	-0.168401	-0.000406071	3	9.65556e-06	6.83829e-08
2	0	0	1	0	57.4377	-0.173284	-0.173382	-0.000400105	3	9.61504e-06	6.93708e-08
2	0	0	1	0	57.5377	-0.178284	-0.178448	-0.00039674	3	9.57496e-06	7.07974e-08
2	0	0	1	0	57.6377	-0.183284	-0.183407	-0.000391085	3	9.53525e-06	7.17279e-08
2	0	0	1	0	57.7377	-0.188285	-0.188428	-0.000391124	3	9.49592e-06	7.36988e-08
2	0	0	1	0	57.8377	-0.193285	-0.193401	-0.000385894	3	9.4569e-06	7.46323e-08
2	0	0	1	0	57.9377	-0.198285	-0.198365	-0.000383705	3	9.41817e-06	7.61136e-08
2	1	0	1	1	58.0181	-0.197685	-0.197739	-0.000251648	3	9.39277e-06	4.97606e-08
2	1	0	1	1	58.1181	-0.192685	-0.192735	-0.00022964	3	9.3689e-06	4.42598e-08
2	1	0	1	1	58.2181	-0.187685	-0.187782	-0.00021408	3	9.34692e-06	4.02005e-08
2	1	0	1	1	58.3181	-0.182684	-0.182828	-0.000201758	3	9.32632e-06	3.6887e-08
2	1	0	1	1	58.4181	-0.177684	-0.177796	-0.000190179	3	9.30687e-06	3.38131e-08
2	1	0	1	1	58.5181	-0.172684	-0.172799	-0.000182188	3	9.28838e-06	3.14818e-08
2	1	0	1	1	58.6181	-0.167684	-0.167772	-0.000173594	3	9.27075e-06	2.91242e-08
2	1	0	1	1	58.7181	-0.162684	-0.162741	-0.000165434	3	9.25392e-06	2.69229e-08
2	1	0	1	1	58.8181	-0.157683	-0.1578	-0.000158838	3	9.23779e-06	2.50646e-08
2	1	0	1	1	58.9181	-0.152683	-0.152714	-0.000152277	3	9.22238e-06	2.32548e-08
2	1	0	1	1	59.0181	-0.147683	-0.14776	-0.000146941	3	9.20755e-06	2.1712e-08
2	1	0	1	1	59.1181	-0.142683	-0.142729	-0.000141229	3	9.1933e-06	2.01575e-08
2	1	0	1	1	59.2181	-0.137683	-0.137757	-0.000135343	3	9.17962e-06	1.86445e-08
2	1	0	1	1	59.3181	-0.132683	-0.132767	-0.000131941	3	9.16647e-06	1.75174e-08
2	1	0	1	1	59.4181	-0.127682	-0.12779	-0.000126377	3	9.15381e-06	1.61497e-08
2	1	0	1	1	59.5181	-0.122682	-0.122783	-0.000120991	3	9.14165e-06	1.48556e-08
2	1	0	1	1	59.6181	-0.117682	-0.117808	-0.000114879	3	9.12994e-06	1.35337e-08
2	1	0	1	1	59.7181	-0.112682	-0.112799	-0.000112011	3	9.11868e-06	1.26347e-08
2	1	0	1	1	59.8181	-0.107682	-0.107757	-0.000107489	3	9.10785e-06	1.15826e-08
2	1	0	1	1	59.9181	-0.102681	-0.102806	-0.000104161	3	9.0974e-06	1.07084e-08
2	1	0	0	1	60.0183	-0.0976813	-0.0978001	-9.96953e-05	3	9.08731e-06	9.75021e-09
2	1	0	0	1	60.1183	-0.0926811	-0.0928313	-9.79607e-05	3	9.07762e-06	9.09382e-09
2	1	0	0	1	60.2183	-0.0876809	-0.0877798	-9.43272e-05	3	9.0683e-06	8.28003e-09
2	1	0	0	1	60.3183	-0.0826808	-0.0827909	-8.86942e-05	3	9.05931e-06	7.34307e-09
2	1	0	0	1	60.4183	-0.0776806	-0.0778041	-8.60181e-05	3	9.05066e-06	6.69256e-09
2	1	0	0	1	60.5183	-0.0726804	-0.0727812	-8.33438e-05	3	9.04235e-06	6.06586e-09
2	1	0	0	1	60.6183	-0.0676802	-0.0677403	-8.04275e-05	3	9.03437e-06	5.44818e-09
2	1	0	1	1	60.6964	-0.063755	-0.0640797	-7.31217e-05	3	9.02837e-06	4.68561e-09