File: AutoAnalysis Examples/EC/C003A-5ppb-A_C01.mpt
EC-Lab ASCII FILE
Nb header lines : 59

Cyclic Voltammetry

Run on channel : 1 (SN 22398)
User :
CE vs. WE compliance from -10 V to 10 V
Electrode connection : standard
Ewe ctrl range : min = -1.00 V, max = 1.00 V
Safety Limits :
	Ewe min = -2.00 V
	Ewe max = 2.00 V
	|I| = 50.000 mA
	for t > 10 ms
Acquisition started on : 11/21/2018 10:00:20
Technique started on : 11/21/2018 10:00:20
Saved on :
	File : C003A-5ppb-A_C01.mpr
	Directory : \\ECCOMPUTER\Users\Lab User\Google Drive\Electrochemical Data\EC-Lab\Data\FREDsense\Tim\2018.11.21 - EC comparison to High Throughput\
	Host : 172.16.1.30
Device : SP-50 (SN 0301030103010301)
Address : USB
EC-Lab for windows v11.02 (software)
Internet server v11.02 (firmware)
Command interpretor v11.02 (firmware)
Electrode material : Au/Pd
Initial state :
Electrolyte : NaCl (0.2M)
Comments : Fe(CN)63-/Fe(CN)64- 5.10-3 M
Reference electrode : SCE Saturated Calomel Electrode (0.241 V)
Electrode surface area : 0.001 cm²
Characteristic mass : 0.001 g
Equivalent Weight : 0.000 g/eq.
Density : 0.000 g/cm3
Cycle Definition : Charge/Discharge alternance
Ei (V)              -0.100
vs.                 Ref
dE/dt               50.000
dE/dt unit          mV/s
E1 (V)              0.300
vs.                 Ref
Step percent        50
N                   10
E range min (V)     -1.000
E range max (V)     1.000
I Range             Auto
I Range min         Unset
I Range max         Unset
I Range init        Unset
Bandwidth           5
E2 (V)              -0.200
vs.                 Ref
nc cycles           2
Reverse Scan        1
Ef (V)              0.000
vs.                 Eoc

mode	ox/red	error	control changes	counter inc.	time/s	control/V	Ewe/V	<I>/mA	cycle number	(Q-Qo)/C	P/W
2	1	0	0	0	0.000000000000000E+000	-0.0984934	-0.0987167	-9.08585e-05	1	0.0000000E+000	8.96925e-09
2	1	0	0	0	0.1112	-0.0929432	-0.0930473	-2.6547e-06	1	1.14262e-09	2.47012e-10
2	1	0	1	0	0.2267	-0.0871681	-0.0873129	3.9396e-05	1	6.10842e-09	-3.43978e-09
2	1	0	1	0	0.3267	-0.082168	-0.0822487	4.57904e-05	1	1.06202e-08	-3.7662e-09
2	1	0	1	0	0.4267	-0.0771679	-0.0772799	4.89699e-05	1	1.5653e-08	-3.78439e-09
2	1	0	1	0	0.5267	-0.0721678	-0.0722539	5.18915e-05	1	2.10723e-08	-3.74936e-09
2	1	0	1	0	0.6267	-0.0671677	-0.0672797	5.53625e-05	1	2.67877e-08	-3.72477e-09
2	1	0	1	0	0.7267	-0.0621676	-0.0623003	5.71359e-05	1	3.27753e-08	-3.55959e-09
2	1	0	1	0	0.8267	-0.0571675	-0.0572881	6.10891e-05	1	3.89815e-08	-3.49968e-09
2	1	0	1	0	0.9267	-0.0521674	-0.0523214	6.60703e-05	1	4.54465e-08	-3.45689e-09
2	1	0	1	0	1.0267	-0.0471672	-0.0472858	6.48674e-05	1	5.21296e-08	-3.06731e-09
2	1	0	1	0	1.1267	-0.0421671	-0.0422672	6.73845e-05	1	5.9027e-08	-2.84815e-09
2	1	0	1	0	1.2267	-0.037167	-0.0372846	7.06753e-05	1	6.618e-08	-2.6351e-09
2	1	0	1	0	1.3267	-0.0321669	-0.0322447	7.24152e-05	1	7.35797e-08	-2.33501e-09
2	1	0	1	0	1.4267	-0.0271668	-0.0272728	7.51655e-05	1	8.12735e-08	-2.04997e-09
2	1	0	1	0	1.5267	-0.0221667	-0.0223082	7.94897e-05	1	8.93239e-08	-1.77327e-09
2	1	0	1	0	1.6267	-0.0171666	-0.0173002	8.46069e-05	1	9.77746e-08	-1.46371e-09
2	1	0	1	0	1.7267	-0.0121665	-0.0122815	9.05491e-05	1	1.06719e-07	-1.11208e-09
2	1	0	1	0	1.8267	-0.00716636	-0.00728834	9.86021e-05	1	1.1628e-07	-7.18645e-10
2	1	0	1	0	1.9267	-0.00216625	-0.00224745	0.000106526	1	1.2663e-07	-2.39412e-10
2	1	0	1	0	2.0267	0.00283386	0.00274256	0.00011707	1	1.38057e-07	3.21071e-10
2	1	0	1	0	2.1267	0.00783397	0.00776755	0.000132713	1	1.50741e-07	1.03085e-09
2	1	0	1	0	2.2267	0.0128341	0.012748	0.00015223	1	1.65099e-07	1.94063e-09
2	1	0	1	0	2.3267	0.0178342	0.0177486	0.000176322	1	1.8165e-07	3.12947e-09
2	1	0	1	0	2.4267	0.0228343	0.0227238	0.000207152	1	2.0096e-07	4.70729e-09
2	1	0	1	0	2.5267	0.0278344	0.0277255	0.000246285	1	2.23792e-07	6.82837e-09
2	1	0	1	0	2.6267	0.0328345	0.0327568	0.000293676	1	2.50912e-07	9.61988e-09
2	1	0	1	0	2.7267	0.0378346	0.0377023	0.000348952	1	2.83172e-07	1.31563e-08
2	1	0	1	0	2.8267	0.0428347	0.0427103	0.000411761	1	3.21406e-07	1.75864e-08
2	1	0	1	0	2.9267	0.0478348	0.047713	0.000482502	1	3.66291e-07	2.30216e-08
2	1	0	1	0	3.0267	0.0528349	0.0527317	0.000555095	1	4.18341e-07	2.92711e-08
2	1	0	1	0	3.1267	0.0578351	0.0577365	0.000625212	1	4.77554e-07	3.60976e-08
2	1	0	1	0	3.2267	0.0628352	0.0626746	0.000689371	1	5.43588e-07	4.3206e-08
2	1	0	1	0	3.3267	0.0678353	0.0677261	0.000745469	1	6.15709e-07	5.04877e-08
2	1	0	1	0	3.4267	0.0728354	0.0727076	0.000788719	1	6.92769e-07	5.73458e-08
2	1	0	1	0	3.5267	0.0778355	0.0777464	0.000818007	1	7.73452e-07	6.35971e-08
2	1	0	1	0	3.6267	0.0828356	0.0827056	0.000833619	1	8.5637e-07	6.8945e-08
2	1	0	1	0	3.7267	0.0878357	0.0877677	0.000837374	1	9.40226e-07	7.34944e-08
2	1	0	1	0	3.8267	0.0928358	0.0927906	0.000831289	1	1.02392e-06	7.71358e-08
2	1	0	1	0	3.9267	0.0978359	0.0978177	0.000818272	1	1.1066e-06	8.00415e-08
2	1	0	1	0	4.0267	0.102836	0.102703	0.000798934	1	1.18767e-06	8.20527e-08
2	1	0	1	0	4.1267	0.107836	0.107697	0.000779127	1	1.26679e-06	8.39097e-08
2	1	0	1	0	4.2267	0.112836	0.112675	0.000757434	1	1.34378e-06	8.53442e-08
2	1	0	1	0	4.3267	0.117836	0.117689	0.000735591	1	1.41861e-06	8.65707e-08
2	1	0	1	0	4.4267	0.122836	0.122738	0.000713645	1	1.49132e-06	8.75914e-08
2	1	0	1	0	4.5267	0.127837	0.127687	0.000695676	1	1.56203e-06	8.88285e-08
2	1	0	1	0	4.6267	0.132837	0.132738	0.000677365	1	1.63087e-06	8.99122e-08
2	1	0	1	0	4.7267	0.137837	0.137695	0.000660994	1	1.69798e-06	9.10158e-08
2	1	0	1	0	4.8267	0.142837	0.142713	0.000645634	1	1.76355e-06	9.21402e-08
2	1	0	1	0	4.9267	0.147837	0.147717	0.000633771	1	1.82768e-06	9.36185e-08
2	1	0	1	0	5.0267	0.152837	0.152724	0.000624697	1	1.89055e-06	9.5406e-08
2	1	0	1	0	5.1267	0.157837	0.157696	0.000609405	1	1.95229e-06	9.61005e-08
2	1	0	1	0	5.2267	0.162837	0.162691	0.00059931	1	2.01298e-06	9.75023e-08
2	1	0	1	0	5.3267	0.167837	0.167711	0.000592297	1	2.07277e-06	9.93345e-08
2	1	0	1	0	5.4267	0.172838	0.172709	0.000584228	1	2.13169e-06	1.00902e-07
2	1	0	1	0	5.5267	0.177838	0.177708	0.00057613	1	2.1899e-06	1.02383e-07
2	1	0	1	0	5.6267	0.182838	0.182695	0.000570557	1	2.24746e-06	1.04238e-07
2	1	0	1	0	5.7267	0.187838	0.187701	0.000563971	1	2.30443e-06	1.05858e-07
2	1	0	1	0	5.8267	0.192838	0.192738	0.000559985	1	2.36091e-06	1.0793e-07
2	1	0	1	0	5.9267	0.197838	0.197685	0.000554288	1	2.41692e-06	1.09574e-07
2	1	0	1	0	6.0267	0.202838	0.202717	0.000552564	1	2.47256e-06	1.12014e-07
2	1	0	1	0	6.1267	0.207838	0.20773	0.000549353	1	2.52789e-06	1.14117e-07
2	1	0	1	0	6.2267	0.212838	0.21275	0.000547343	1	2.58295e-06	1.16447e-07
2	1	0	1	0	6.3267	0.217839	0.217723	0.0005445	1	2.63777e-06	1.1855e-07
2	1	0	1	0	6.4267	0.222839	0.222647	0.000543305	1	2.69241e-06	1.20965e-07
2	1	0	1	0	6.5267	0.227839	0.227689	0.000542405	1	2.7469e-06	1.235e-07
2	1	0	1	0	6.6267	0.232839	0.232715	0.000540362	1	2.8013e-06	1.2575e-07
2	1	0	1	0	6.7267	0.237839	0.237679	0.000540793	1	2.85564e-06	1.28535e-07
2	1	0	1	0	6.8267	0.242839	0.242693	0.000539968	1	2.90993e-06	1.31047e-07
2	1	0	1	0	6.9267	0.247839	0.247694	0.000541697	1	2.96423e-06	1.34175e-07
2	1	0	1	0	7.0267	0.252839	0.252638	0.000541911	1	3.01856e-06	1.36907e-07
2	1	0	1	0	7.1267	0.257839	0.257696	0.000543375	1	3.073e-06	1.40026e-07
2	1	0	1	0	7.2267	0.26284	0.262662	0.000540881	1	3.1275e-06	1.42069e-07
2	1	0	1	0	7.3267	0.26784	0.267657	0.000545331	1	3.18212e-06	1.45962e-07
2	1	0	1	0	7.4267	0.27284	0.272722	0.000545672	1	3.23689e-06	1.48817e-07
2	1	0	1	0	7.5267	0.27784	0.277677	0.000547279	1	3.29183e-06	1.51967e-07
2	1	0	1	0	7.6267	0.28284	0.282716	0.00054892	1	3.347e-06	1.55188e-07
2	1	0	1	0	7.7267	0.28784	0.287675	0.000552568	1	3.40238e-06	1.5896e-07
2	1	0	1	0	7.8267	0.29284	0.29272	0.000555989	1	3.458e-06	1.62749e-07
2	1	0	1	0	7.9267	0.29784	0.297711	0.000557694	1	3.5139e-06	1.66031e-07
2	0	0	0	0	8.0153	0.29774	0.297556	0.000426724	1	3.55825e-06	1.26974e-07
2	0	0	0	0	8.1153	0.29274	0.292525	0.00037957	1	3.59813e-06	1.11034e-07
2	0	0	0	0	8.2153	0.28774	0.287534	0.000347901	1	3.63423e-06	1.00033e-07
2	0	0	0	0	8.3153	0.28274	0.282569	0.000324754	1	3.66759e-06	9.17653e-08
2	0	0	0	0	8.4153	0.27774	0.277524	0.000305099	1	3.69877e-06	8.46722e-08
2	0	0	0	0	8.5153	0.27274	0.272557	0.000288795	1	3.72822e-06	7.87131e-08
2	0	0	0	0	8.6153	0.26774	0.267586	0.000275187	1	3.7562e-06	7.36361e-08
2	0	0	0	0	8.7153	0.262739	0.262579	0.000263343	1	3.78288e-06	6.91484e-08
2	0	0	0	0	8.8153	0.257739	0.257593	0.000254649	1	3.80846e-06	6.55959e-08
2	0	0	0	0	8.9153	0.252739	0.252551	0.000243812	1	3.83302e-06	6.15751e-08
2	0	0	0	0	9.0153	0.247739	0.247564	0.000235734	1	3.85675e-06	5.83595e-08
2	0	0	0	0	9.1153	0.242739	0.242552	0.000228644	1	3.87969e-06	5.54581e-08
2	0	0	0	0	9.2153	0.237739	0.237555	0.000221658	1	3.90193e-06	5.26559e-08
2	0	0	0	0	9.3153	0.232739	0.23252	0.000217827	1	3.92363e-06	5.06491e-08
2	0	0	0	0	9.4153	0.227739	0.227572	0.000208414	1	3.94471e-06	4.7429e-08
2	0	0	0	0	9.5153	0.222739	0.222579	0.000202954	1	3.96512e-06	4.51733e-08
2	0	0	0	0	9.6153	0.217739	0.217606	0.000198644	1	3.98495e-06	4.32261e-08
2	0	0	0	0	9.7153	0.212738	0.212579	0.000193327	1	4.00424e-06	4.10973e-08
2	0	0	0	0	9.8153	0.207738	0.207586	0.000187975	1	4.02306e-06	3.90209e-08
2	0	0	0	0	9.9153	0.202738	0.202545	0.00018415	1	4.04139e-06	3.72988e-08
2	0	0	0	0	10.0153	0.197738	0.197577	0.000178922	1	4.05929e-06	3.53509e-08
2	0	0	0	0	10.1153	0.192738	0.19258	0.000174304	1	4.0768e-06	3.35676e-08
2	0	0	0	0	10.2153	0.187738	0.187594	0.000174096	1	4.09409e-06	3.26594e-08
2	0	0	0	0	10.3153	0.182738	0.182561	0.000167998	1	4.11099e-06	3.06699e-08
2	0	0	0	0	10.4153	0.177738	0.177571	0.00016259	1	4.1273e-06	2.88712e-08
2	0	0	0	0	10.5153	0.172738	0.172585	0.000158052	1	4.1431e-06	2.72774e-08
2	0	0	0	0	10.6153	0.167737	0.1676	0.00015214	1	4.15847e-06	2.54987e-08
2	0	0	0	0	10.7153	0.162737	0.162559	0.000148406	1	4.1734e-06	2.41247e-08
2	0	0	0	0	10.8153	0.157737	0.157586	0.000144143	1	4.18791e-06	2.2715e-08
2	0	0	0	0	10.9153	0.152737	0.152587	0.000137286	1	4.20198e-06	2.09481e-08
2	0	0	0	0	11.0153	0.147737	0.147533	0.000134852	1	4.2156e-06	1.98952e-08
2	0	0	0	0	11.1153	0.142737	0.14254	0.00013177	1	4.22874e-06	1.87825e-08
2	0	0	0	0	11.2153	0.137737	0.1376	0.000125639	1	4.24133e-06	1.72878e-08
2	0	0	0	0	11.3153	0.132737	0.132569	0.000119958	1	4.25338e-06	1.59026e-08
2	0	0	0	0	11.4153	0.127737	0.127541	0.000111786	1	4.26479e-06	1.42574e-08
2	0	0	0	0	11.5153	0.122736	0.122563	0.000107113	1	4.27549e-06	1.3128e-08
2	0	0	0	0	11.6153	0.117736	0.117563	9.69805e-05	1	4.2854e-06	1.14013e-08
2	0	0	0	0	11.7153	0.112736	0.112587	8.60924e-05	1	4.29444e-06	9.69292e-09
2	0	0	0	0	11.8153	0.107736	0.107604	7.44537e-05	1	4.30227e-06	8.01149e-09
2	0	0	0	0	11.9153	0.102736	0.102587	6.01035e-05	1	4.30885e-06	6.16585e-09
2	0	0	0	0	12.0153	0.0977359	0.0976088	4.32361e-05	1	4.3139e-06	4.22023e-09
2	0	0	0	0	12.1153	0.0927358	0.0925828	2.39895e-05	1	4.31707e-06	2.22101e-09
2	0	0	0	0	12.2153	0.0877357	0.0875705	-2.60359e-06	1	4.31798e-06	-2.27998e-10
2	0	0	0	0	12.3153	0.0827356	0.0825805	-3.2438e-05	1	4.31611e-06	-2.67875e-09
2	0	0	0	0	12.4153	0.0777355	0.0776488	-6.89424e-05	1	4.31087e-06	-5.35329e-09
2	0	0	0	0	12.5153	0.0727354	0.0725994	-0.00011336	1	4.30153e-06	-8.22989e-09
2	0	0	0	0	12.6153	0.0677353	0.0675162	-0.000165905	1	4.28742e-06	-1.12013e-08
2	0	0	0	0	12.7153	0.0627352	0.0626088	-0.000224394	1	4.26775e-06	-1.40491e-08
2	0	0	0	0	12.8153	0.0577351	0.0575987	-0.000291199	1	4.24184e-06	-1.67727e-08
2	0	0	0	0	12.9153	0.0527349	0.0525854	-0.000358955	1	4.20921e-06	-1.88758e-08
2	0	0	0	0	13.0153	0.0477348	0.0475826	-0.000428494	1	4.16954e-06	-2.03889e-08
2	0	0	0	0	13.1153	0.0427347	0.0425969	-0.000494218	1	4.12313e-06	-2.10521e-08
2	0	0	0	0	13.2153	0.0377346	0.0376037	-0.000550368	1	4.0706e-06	-2.06959e-08
2	0	0	0	0	13.3153	0.0327345	0.0326084	-0.000596316	1	4.01301e-06	-1.94449e-08
2	0	0	0	0	13.4153	0.0277344	0.0276279	-0.000623382	1	3.95177e-06	-1.72228e-08
2	0	0	0	0	13.5153	0.0227343	0.0225849	-0.000637503	1	3.88843e-06	-1.43979e-08
2	0	0	0	0	13.6153	0.0177342	0.017579	-0.000635124	1	3.82449e-06	-1.11648e-08
2	0	0	0	0	13.7153	0.0127341	0.0126123	-0.000623561	1	3.76125e-06	-7.86455e-09
2	0	0	0	0	13.8153	0.00773397	0.00757779	-0.000603044	1	3.69966e-06	-4.56974e-09
2	0	0	0	0	13.9153	0.00273386	0.00259202	-0.000578004	1	3.64037e-06	-1.4982e-09
2	0	0	0	0	14.0153	-0.00226625	-0.00244251	-0.000549847	1	3.58372e-06	1.34301e-09
2	0	0	0	0	14.1153	-0.00726636	-0.00740919	-0.000523132	1	3.52988e-06	3.87599e-09
2	0	0	0	0	14.2153	-0.0122665	-0.0124533	-0.000496221	1	3.47879e-06	6.17958e-09
2	0	0	0	0	14.3153	-0.0172666	-0.0174412	-0.000469921	1	3.43028e-06	8.19597e-09
2	0	0	0	0	14.4153	-0.0222667	-0.022393	-0.00044808	1	3.38417e-06	1.00338e-08
2	0	0	0	0	14.5153	-0.0272668	-0.0274021	-0.000427837	1	3.34024e-06	1.17236e-08
2	0	0	0	0	14.6153	-0.0322669	-0.0324557	-0.000408076	1	3.29827e-06	1.32444e-08
2	0	0	0	0	14.7153	-0.037267	-0.0374001	-0.00039279	1	3.25805e-06	1.46904e-08
2	0	0	0	0	14.8153	-0.0422671	-0.0424378	-0.000376073	1	3.21938e-06	1.59597e-08
2	0	0	0	0	14.9153	-0.0472672	-0.0474395	-0.000363077	1	3.18215e-06	1.72242e-08
2	0	0	0	0	15.0153	-0.0522674	-0.0524783	-0.000353302	1	3.14615e-06	1.85407e-08
2	0	0	0	0	15.1153	-0.0572675	-0.0574545	-0.000340144	1	3.11127e-06	1.95428e-08
2	0	0	0	0	15.2153	-0.0622676	-0.0624159	-0.000331537	1	3.07744e-06	2.06932e-08
2	0	0	0	0	15.3153	-0.0672677	-0.0674229	-0.000323454	1	3.04451e-06	2.18082e-08
2	0	0	0	0	15.4153	-0.0722678	-0.0724616	-0.00031472	1	3.01243e-06	2.28052e-08
2	0	0	0	0	15.5153	-0.0772679	-0.0774728	-0.00030724	1	2.98111e-06	2.38027e-08
2	0	0	0	0	15.6153	-0.082268	-0.0824268	-0.000300826	1	2.95049e-06	2.47961e-08
2	0	0	0	0	15.7153	-0.0872681	-0.0874963	-0.000293319	1	2.92052e-06	2.56643e-08
2	0	0	0	0	15.8153	-0.0922682	-0.0924238	-0.000288739	1	2.89112e-06	2.66863e-08
2	0	0	0	0	15.9153	-0.0972684	-0.0974212	-0.000282563	1	2.86229e-06	2.75277e-08
2	0	0	1	0	16.0155	-0.102268	-0.102429	-0.000277421	1	2.83392e-06	2.8416e-08
2	0	0	1	0	16.1155	-0.107269	-0.10745	-0.000274298	1	2.80606e-06	2.94733e-08
2	0	0	1	0	16.2155	-0.112269	-0.112417	-0.000269926	1	2.77863e-06	3.03442e-08
2	0	0	1	0	16.3155	-0.117269	-0.117408	-0.000266357	1	2.75161e-06	3.12723e-08
2	0	0	1	0	16.4155	-0.122269	-0.122405	-0.000262239	1	2.72496e-06	3.20994e-08
2	0	0	1	0	16.5155	-0.127269	-0.127414	-0.000259049	1	2.69866e-06	3.30065e-08
2	0	0	1	0	16.6155	-0.132269	-0.132414	-0.000254997	1	2.67268e-06	3.37651e-08
2	0	0	1	0	16.7155	-0.137269	-0.137425	-0.000253041	1	2.647e-06	3.47742e-08
2	0	0	1	0	16.8155	-0.142269	-0.142424	-0.000250906	1	2.62159e-06	3.57349e-08
2	0	0	1	0	16.9155	-0.147269	-0.147397	-0.000248641	1	2.59644e-06	3.66489e-08
2	0	0	1	0	17.0155	-0.15227	-0.1524	-0.000245605	1	2.57152e-06	3.74303e-08
2	0	0	1	0	17.1155	-0.15727	-0.157459	-0.000244469	1	2.54676e-06	3.84939e-08
2	0	0	1	0	17.2155	-0.16227	-0.162414	-0.000241284	1	2.52223e-06	3.9188e-08
2	0	0	1	0	17.3155	-0.16727	-0.167489	-0.000242001	1	2.49785e-06	4.05326e-08
2	0	0	1	0	17.4155	-0.17227	-0.17239	-0.000238992	1	2.47362e-06	4.11998e-08
2	0	0	1	0	17.5155	-0.17727	-0.177443	-0.000238576	1	2.44951e-06	4.23336e-08
2	0	0	1	0	17.6155	-0.18227	-0.182411	-0.00023826	1	2.42549e-06	4.34614e-08
2	0	0	1	0	17.7155	-0.18727	-0.187424	-0.00023717	1	2.40155e-06	4.44513e-08
2	0	0	1	0	17.8155	-0.19227	-0.192417	-0.000235784	1	2.37766e-06	4.53688e-08
2	0	0	1	0	17.9155	-0.197271	-0.197419	-0.000236729	1	2.35378e-06	4.67347e-08
2	1	0	1	1	18.0059	-0.198221	-0.198306	-0.000120632	1	2.33622e-06	2.39221e-08
2	1	0	1	1	18.1059	-0.19322	-0.193371	-9.59594e-05	1	2.32597e-06	1.85558e-08
2	1	0	1	1	18.2059	-0.18822	-0.188312	-7.91557e-05	1	2.3175e-06	1.4906e-08
2	1	0	1	1	18.3059	-0.18322	-0.183304	-7.26094e-05	1	2.31022e-06	1.33096e-08
2	1	0	1	1	18.4059	-0.17822	-0.178325	-6.33129e-05	1	2.30388e-06	1.12902e-08
2	1	0	1	1	18.5059	-0.17322	-0.173316	-5.71817e-05	1	2.29831e-06	9.91048e-09
2	1	0	1	1	18.6059	-0.16822	-0.168363	-4.97522e-05	1	2.29341e-06	8.37642e-09
2	1	0	1	1	18.7059	-0.16322	-0.163362	-4.23051e-05	1	2.2891e-06	6.91105e-09
2	1	0	1	1	18.8059	-0.15822	-0.158351	-3.86946e-05	1	2.28532e-06	6.12732e-09
2	1	0	1	1	18.9059	-0.15322	-0.153351	-3.52113e-05	1	2.28204e-06	5.39969e-09
2	1	0	1	1	19.0059	-0.148219	-0.148351	-2.9603e-05	1	2.27917e-06	4.39162e-09
2	1	0	1	1	19.1059	-0.143219	-0.143361	-2.59801e-05	1	2.27668e-06	3.72452e-09
2	1	0	1	1	19.2059	-0.138219	-0.138311	-2.29966e-05	1	2.27457e-06	3.18069e-09
2	1	0	1	1	19.3059	-0.133219	-0.133323	-1.88173e-05	1	2.27282e-06	2.50879e-09
2	1	0	1	1	19.4059	-0.128219	-0.128312	-1.65228e-05	1	2.27138e-06	2.12008e-09
2	1	0	1	1	19.5059	-0.123219	-0.123334	-1.34828e-05	1	2.27024e-06	1.66289e-09
2	1	0	1	1	19.6059	-0.118219	-0.118378	-1.1969e-05	1	2.26938e-06	1.41687e-09
2	1	0	1	1	19.7059	-0.113219	-0.113336	-7.48414e-06	1	2.26882e-06	8.48222e-10
2	1	0	1	1	19.8059	-0.108219	-0.108378	-5.05888e-06	1	2.2685e-06	5.4827e-10
2	1	0	1	1	19.9059	-0.103218	-0.103339	-2.25385e-06	1	2.26842e-06	2.3291e-10
2	1	0	1	1	20.0059	-0.0982184	-0.0983319	-6.17486e-08	2	2.26859e-06	6.07185e-12
2	1	0	0	1	20.1061	-0.0932183	-0.0933365	1.57217e-06	2	2.26896e-06	-1.46741e-10
2	1	0	0	1	20.2061	-0.0882181	-0.0883487	4.17407e-06	2	2.26957e-06	-3.68773e-10
2	1	0	0	1	20.3061	-0.083218	-0.0833852	6.72121e-06	2	2.27038e-06	-5.60449e-10
2	1	0	0	1	20.4061	-0.0782179	-0.0783718	7.23347e-06	2	2.2714e-06	-5.669e-10
2	1	0	0	1	20.5061	-0.0732178	-0.0733861	9.75588e-06	2	2.2726e-06	-7.15946e-10
2	1	0	0	1	20.6061	-0.0682177	-0.068343	9.8336e-06	2	2.27399e-06	-6.72058e-10
2	1	0	0	1	20.7061	-0.0632176	-0.0633541	1.32074e-05	2	2.27558e-06	-8.36744e-10
2	1	0	0	1	20.8061	-0.0582175	-0.0583588	1.48873e-05	2	2.27734e-06	-8.68802e-10
2	1	0	0	1	20.9061	-0.0532174	-0.0534165	1.66713e-05	2	2.27928e-06	-8.90523e-10
2	1	0	0	1	21.0061	-0.0482173	-0.0483152	1.86338e-05	2	2.28145e-06	-9.00294e-10
2	1	0	0	1	21.1061	-0.0432172	-0.0433464	2.0538e-05	2	2.28381e-06	-8.90246e-10
2	1	0	0	1	21.2061	-0.038217	-0.0383203	2.28502e-05	2	2.28637e-06	-8.75626e-10
2	1	0	0	1	21.3061	-0.0332169	-0.0333515	2.63423e-05	2	2.2892e-06	-8.78557e-10
2	1	0	0	1	21.4061	-0.0282168	-0.0283403	2.94441e-05	2	2.29227e-06	-8.34455e-10
2	1	0	0	1	21.5061	-0.0232167	-0.0233492	3.13112e-05	2	2.29569e-06	-7.31093e-10
2	1	0	0	1	21.6061	-0.0182166	-0.0183539	3.68153e-05	2	2.29948e-06	-6.75705e-10
2	1	0	0	1	21.7061	-0.0132165	-0.0133501	4.12543e-05	2	2.30373e-06	-5.5075e-10
2	1	0	0	1	21.8061	-0.00821638	-0.00834528	4.84082e-05	2	2.30858e-06	-4.0398e-10
2	1	0	0	1	21.9061	-0.00321627	-0.00331075	5.7574e-05	2	2.31415e-06	-1.90613e-10
2	1	0	0	1	22.0061	0.00178384	0.00168986	6.74658e-05	2	2.32074e-06	1.14008e-10
2	1	0	0	1	22.1061	0.00678395	0.0066417	8.04523e-05	2	2.32847e-06	5.3434e-10
2	1	0	0	1	22.2061	0.0117841	0.0116614	0.000100215	2	2.33775e-06	1.16864e-09
2	1	0	0	1	22.3061	0.0167842	0.016697	0.000119225	2	2.34902e-06	1.99069e-09
2	1	0	0	1	22.4061	0.0217843	0.02167	0.000147646	2	2.36277e-06	3.19949e-09
2	1	0	0	1	22.5061	0.0267844	0.0266611	0.000183598	2	2.37964e-06	4.89491e-09
2	1	0	0	1	22.6061	0.0317845	0.0316988	0.000224649	2	2.40028e-06	7.12109e-09
2	1	0	0	1	22.7061	0.0367846	0.0366496	0.000273292	2	2.42548e-06	1.0016e-08
2	1	0	0	1	22.8061	0.0417847	0.041683	0.000330159	2	2.45594e-06	1.3762e-08
2	1	0	0	1	22.9061	0.0467848	0.046708	0.000390494	2	2.49232e-06	1.82392e-08
2	1	0	0	1	23.0061	0.0517849	0.0516758	0.000458332	2	2.53512e-06	2.36847e-08
2	1	0	0	1	23.1061	0.056785	0.0566531	0.00052321	2	2.58452e-06	2.96414e-08
2	1	0	0	1	23.2061	0.0617851	0.0616685	0.000584617	2	2.64034e-06	3.60525e-08
2	1	0	0	1	23.3061	0.0667853	0.0666765	0.000641099	2	2.70211e-06	4.27463e-08
2	1	0	0	1	23.4061	0.0717854	0.0716655	0.000687407	2	2.76898e-06	4.92634e-08
2	1	0	0	1	23.5061	0.0767855	0.0766873	0.00072088	2	2.83982e-06	5.52824e-08
2	1	0	0	1	23.6061	0.0817856	0.0816328	0.00074083	2	2.91341e-06	6.0476e-08
2	1	0	0	1	23.7061	0.0867857	0.0866779	0.000751091	2	2.98852e-06	6.5103e-08
2	1	0	0	1	23.8061	0.0917858	0.0916637	0.000749183	2	3.06403e-06	6.86729e-08
2	1	0	0	1	23.9061	0.0967859	0.0966579	0.00074089	2	3.13897e-06	7.16129e-08
2	1	0	0	1	24.0061	0.101786	0.101638	0.000725469	2	3.21267e-06	7.37355e-08
2	1	0	0	1	24.1061	0.106786	0.106657	0.000706548	2	3.28462e-06	7.53583e-08
2	1	0	0	1	24.2061	0.111786	0.111688	0.000685925	2	3.35455e-06	7.66099e-08
2	1	0	0	1	24.3061	0.116786	0.116673	0.000663234	2	3.42236e-06	7.73815e-08
2	1	0	0	1	24.4061	0.121786	0.121649	0.000642954	2	3.48798e-06	7.82149e-08
2	1	0	0	1	24.5061	0.126787	0.126647	0.000621618	2	3.55148e-06	7.87258e-08
2	1	0	0	1	24.6061	0.131787	0.131649	0.000602459	2	3.613e-06	7.93134e-08
2	1	0	0	1	24.7061	0.136787	0.136631	0.000583773	2	3.67263e-06	7.97614e-08
2	1	0	0	1	24.8061	0.141787	0.141663	0.000567059	2	3.73053e-06	8.03315e-08
2	1	0	0	1	24.9061	0.146787	0.146681	0.000551683	2	3.78683e-06	8.09213e-08
2	1	0	0	1	25.0061	0.151787	0.151642	0.000538901	2	3.84167e-06	8.17202e-08
2	1	0	0	1	25.1061	0.156787	0.156677	0.000525021	2	3.89522e-06	8.22586e-08
2	1	0	0	1	25.2061	0.161787	0.161651	0.000512813	2	3.94752e-06	8.28967e-08
2	1	0	0	1	25.3061	0.166787	0.166638	0.000503621	2	3.99872e-06	8.39222e-08
2	1	0	0	1	25.4061	0.171788	0.171679	0.000494354	2	4.0489e-06	8.48701e-08
2	1	0	0	1	25.5061	0.176788	0.176651	0.000485914	2	4.09817e-06	8.58371e-08
2	1	0	0	1	25.6061	0.181788	0.181618	0.000475088	2	4.14661e-06	8.62848e-08
2	1	0	0	1	25.7061	0.186788	0.186666	0.000471098	2	4.1943e-06	8.79378e-08
2	1	0	0	1	25.8061	0.191788	0.191663	0.000463997	2	4.2413e-06	8.89311e-08
2	1	0	0	1	25.9061	0.196788	0.196704	0.000458758	2	4.28767e-06	9.02395e-08
2	1	0	0	1	26.0061	0.201788	0.201669	0.000452528	2	4.33349e-06	9.12606e-08
2	1	0	0	1	26.1061	0.206788	0.206671	0.000446683	2	4.37884e-06	9.23165e-08
2	1	0	0	1	26.2061	0.211788	0.211702	0.000443984	2	4.42373e-06	9.3992e-08
2	1	0	0	1	26.3061	0.216788	0.216615	0.000441316	2	4.46823e-06	9.55959e-08
2	1	0	0	1	26.4061	0.221789	0.221679	0.000436886	2	4.51239e-06	9.68487e-08
2	1	0	0	1	26.5061	0.226789	0.226632	0.000433822	2	4.55625e-06	9.8318e-08
2	1	0	0	1	26.6061	0.231789	0.231718	0.000432742	2	4.59988e-06	1.00274e-07
2	1	0	0	1	26.7061	0.236789	0.236671	0.000429994	2	4.64329e-06	1.01767e-07
2	1	0	0	1	26.8061	0.241789	0.241647	0.000426352	2	4.68653e-06	1.03027e-07
2	1	0	0	1	26.9061	0.246789	0.246668	0.000427003	2	4.72968e-06	1.05328e-07
2	1	0	0	1	27.0061	0.251789	0.251666	0.000426276	2	4.77274e-06	1.07279e-07
2	1	0	0	1	27.1061	0.256789	0.256637	0.000426851	2	4.81582e-06	1.09546e-07
2	1	0	0	1	27.2061	0.261789	0.261698	0.000427487	2	4.8589e-06	1.11873e-07
2	1	0	0	1	27.3061	0.26679	0.266688	0.000429119	2	4.90205e-06	1.14441e-07
2	1	0	0	1	27.4061	0.27179	0.271665	0.000429565	2	4.94534e-06	1.16698e-07
2	1	0	0	1	27.5061	0.27679	0.276668	0.00043318	2	4.9888e-06	1.19847e-07
2	1	0	0	1	27.6061	0.28179	0.281685	0.000435724	2	5.0325e-06	1.22737e-07
2	1	0	0	1	27.7061	0.28679	0.28663	0.000437777	2	5.07646e-06	1.2548e-07
2	1	0	0	1	27.8061	0.29179	0.291602	0.000442269	2	5.12076e-06	1.28966e-07
2	1	0	0	1	27.9061	0.29679	0.29661	0.000445197	2	5.16546e-06	1.3205e-07
2	0	0	0	1	27.9957	0.29874	0.298594	0.000338495	2	5.20314e-06	1.01072e-07
2	0	0	0	1	28.0957	0.29374	0.293589	0.000298381	2	5.23448e-06	8.76014e-08
2	0	0	0	1	28.1957	0.28874	0.288551	0.000274079	2	5.26289e-06	7.90859e-08
2	0	0	0	1	28.2957	0.28374	0.283568	0.000258378	2	5.2893e-06	7.32678e-08
2	0	0	0	1	28.3957	0.27874	0.278538	0.000244434	2	5.31412e-06	6.80842e-08
2	0	0	0	1	28.4957	0.27374	0.273562	0.000232472	2	5.33767e-06	6.35955e-08
2	0	0	0	1	28.5957	0.26874	0.268581	0.000221077	2	5.36013e-06	5.93771e-08
2	0	0	0	1	28.6957	0.26374	0.263572	0.000211648	2	5.38163e-06	5.57845e-08
2	0	0	0	1	28.7957	0.258739	0.258572	0.000205941	2	5.40232e-06	5.32504e-08
2	0	0	0	1	28.8957	0.253739	0.253553	0.000196934	2	5.42225e-06	4.99332e-08
2	0	0	0	1	28.9957	0.248739	0.248592	0.000191953	2	5.44155e-06	4.77178e-08
2	0	0	0	1	29.0957	0.243739	0.243506	0.000184723	2	5.46025e-06	4.49811e-08
2	0	0	0	1	29.1957	0.238739	0.238567	0.000181803	2	5.4784e-06	4.33722e-08
2	0	0	0	1	29.2957	0.233739	0.23357	0.00017629	2	5.49604e-06	4.1176e-08
2	0	0	0	1	29.3957	0.228739	0.22853	0.000171014	2	5.51322e-06	3.90818e-08
2	0	0	0	1	29.4957	0.223739	0.22357	0.000166939	2	5.52994e-06	3.73224e-08
2	0	0	0	1	29.5957	0.218739	0.21859	0.000162365	2	5.54625e-06	3.54915e-08
2	0	0	0	1	29.6957	0.213738	0.213534	0.000159862	2	5.56214e-06	3.41361e-08
2	0	0	0	1	29.7957	0.208738	0.208574	0.000154173	2	5.57765e-06	3.21565e-08
2	0	0	0	1	29.8957	0.203738	0.203562	0.000150539	2	5.59279e-06	3.06441e-08
2	0	0	0	1	29.9957	0.198738	0.198558	0.000148075	2	5.60755e-06	2.94015e-08
2	0	0	0	1	30.0957	0.193738	0.193577	0.000144408	2	5.62195e-06	2.79541e-08
2	0	0	0	1	30.1957	0.188738	0.188553	0.000139886	2	5.63598e-06	2.63759e-08
2	0	0	0	1	30.2957	0.183738	0.183547	0.000137468	2	5.64967e-06	2.52318e-08
2	0	0	0	1	30.3957	0.178738	0.178628	0.000134516	2	5.66303e-06	2.40284e-08
2	0	0	0	1	30.4957	0.173738	0.173542	0.000130113	2	5.67604e-06	2.25801e-08
2	0	0	0	1	30.5957	0.168737	0.168563	0.000127945	2	5.6887e-06	2.15669e-08
2	0	0	0	1	30.6957	0.163737	0.163578	0.000122526	2	5.70102e-06	2.00426e-08
2	0	0	0	1	30.7957	0.158737	0.158544	0.000119237	2	5.71296e-06	1.89043e-08
2	0	0	0	1	30.8957	0.153737	0.153578	0.000116393	2	5.72451e-06	1.78754e-08
2	0	0	0	1	30.9957	0.148737	0.14857	0.000110974	2	5.73564e-06	1.64874e-08
2	0	0	0	1	31.0957	0.143737	0.14356	0.000106826	2	5.74635e-06	1.5336e-08
2	0	0	0	1	31.1957	0.138737	0.138608	0.000101366	2	5.75662e-06	1.40502e-08
2	0	0	0	1	31.2957	0.133737	0.133539	9.68498e-05	2	5.76637e-06	1.29332e-08
2	0	0	0	1	31.3957	0.128737	0.128536	9.04183e-05	2	5.77559e-06	1.1622e-08
2	0	0	0	1	31.4957	0.123736	0.123582	8.3759e-05	2	5.78415e-06	1.03511e-08
2	0	0	0	1	31.5957	0.118736	0.118592	7.66723e-05	2	5.79201e-06	9.09271e-09
2	0	0	0	1	31.6957	0.113736	0.113594	6.8243e-05	2	5.79902e-06	7.75203e-09
2	0	0	0	1	31.7957	0.108736	0.108614	5.6417e-05	2	5.80506e-06	6.12768e-09
2	0	0	0	1	31.8957	0.103736	0.103586	4.48966e-05	2	5.80995e-06	4.65065e-09
2	0	0	0	1	31.9957	0.0987359	0.0985683	2.99122e-05	2	5.81341e-06	2.9484e-09
2	0	0	0	1	32.0957	0.0937358	0.0936429	9.6022e-06	2	5.81518e-06	8.99178e-10
2	0	0	0	1	32.1957	0.0887357	0.0885776	-1.34369e-05	2	5.81485e-06	-1.19021e-09
2	0	0	0	1	32.2957	0.0837356	0.0835304	-4.06659e-05	2	5.81198e-06	-3.39684e-09
2	0	0	0	1	32.3957	0.0787355	0.078586	-7.44906e-05	2	5.80603e-06	-5.85392e-09
2	0	0	0	1	32.4957	0.0737354	0.0735652	-0.000116739	2	5.79632e-06	-8.58795e-09
2	0	0	0	1	32.5957	0.0687353	0.0686293	-0.000163577	2	5.78218e-06	-1.12262e-08
2	0	0	0	1	32.6957	0.0637352	0.0635905	-0.000219508	2	5.76286e-06	-1.39586e-08
2	0	0	0	1	32.7957	0.0587351	0.0586005	-0.000281125	2	5.73766e-06	-1.64741e-08
2	0	0	0	1	32.8957	0.053735	0.053619	-0.000347051	2	5.70605e-06	-1.86085e-08
2	0	0	0	1	32.9957	0.0487349	0.0485601	-0.000417085	2	5.6676e-06	-2.02537e-08
2	0	0	0	1	33.0957	0.0437347	0.0435701	-0.000482005	2	5.62237e-06	-2.1001e-08
2	0	0	0	1	33.1957	0.0387346	0.0386108	-0.000542248	2	5.57083e-06	-2.09366e-08
2	0	0	0	1	33.2957	0.0337345	0.0335689	-0.00059232	2	5.51382e-06	-1.98835e-08
2	0	0	0	1	33.3957	0.0287344	0.0285757	-0.000627987	2	5.45256e-06	-1.79452e-08
2	0	0	0	1	33.4957	0.0237343	0.0235729	-0.000646635	2	5.38856e-06	-1.52431e-08
2	0	0	0	1	33.5957	0.0187342	0.0185904	-0.000653059	2	5.32328e-06	-1.21406e-08
2	0	0	0	1	33.6957	0.0137341	0.0135876	-0.000644757	2	5.25813e-06	-8.76073e-09
2	0	0	0	1	33.7957	0.00873399	0.00855628	-0.000629937	2	5.19416e-06	-5.38992e-09
2	0	0	0	1	33.8957	0.00373388	0.00358642	-0.00060667	2	5.13222e-06	-2.17577e-09
2	0	0	0	1	33.9957	-0.00126623	-0.00146719	-0.000580708	2	5.07272e-06	8.52011e-10
2	0	0	0	1	34.0957	-0.00626634	-0.00639253	-0.000551808	2	5.01592e-06	3.52745e-09
2	0	0	0	1	34.1957	-0.0112664	-0.0114621	-0.000524475	2	4.96186e-06	6.01156e-09
2	0	0	0	1	34.2957	-0.0162666	-0.0164701	-0.000501406	2	4.91042e-06	8.25819e-09
2	0	0	0	1	34.3957	-0.0212667	-0.0213891	-0.000476132	2	4.86145e-06	1.0184e-08
2	0	0	0	1	34.4957	-0.0262668	-0.026413	-0.000455198	2	4.81473e-06	1.20232e-08
2	0	0	0	1	34.5957	-0.0312669	-0.0314178	-0.000436929	2	4.77003e-06	1.37274e-08
2	0	0	0	1	34.6957	-0.036267	-0.0363824	-0.000419544	2	4.72717e-06	1.5264e-08
2	0	0	0	1	34.7957	-0.0412671	-0.0414275	-0.000403252	2	4.68593e-06	1.67057e-08
2	0	0	0	1	34.8957	-0.0462672	-0.0463624	-0.000388964	2	4.64619e-06	1.80333e-08
2	0	0	0	1	34.9957	-0.0512673	-0.051416	-0.000377152	2	4.60776e-06	1.93917e-08
2	0	0	0	1	35.0957	-0.0562674	-0.0564506	-0.000366518	2	4.57048e-06	2.06902e-08
2	0	0	0	1	35.1957	-0.0612676	-0.0614257	-0.000356628	2	4.53429e-06	2.19061e-08
2	0	0	0	1	35.2957	-0.0662677	-0.0664603	-0.000346577	2	4.49907e-06	2.30336e-08
2	0	0	0	1	35.3957	-0.0712678	-0.0714344	-0.000339132	2	4.46475e-06	2.42257e-08
2	0	0	0	1	35.4957	-0.0762679	-0.0764117	-0.000330482	2	4.43122e-06	2.52527e-08
2	0	0	0	1	35.5957	-0.081268	-0.0813953	-0.000321122	2	4.39846e-06	2.61378e-08
2	0	0	0	1	35.6957	-0.0862681	-0.0864065	-0.000317034	2	4.36628e-06	2.73938e-08
2	0	0	0	1	35.7957	-0.0912682	-0.0914092	-0.000311108	2	4.33488e-06	2.84382e-08
2	0	0	0	1	35.8957	-0.0962683	-0.0964332	-0.00030424	2	4.30402e-06	2.93389e-08
2	0	0	1	1	35.9959	-0.101268	-0.101426	-0.000298164	2	4.27365e-06	3.02417e-08
2	0	0	1	1	36.0959	-0.106269	-0.106428	-0.000293222	2	4.24382e-06	3.1207e-08
2	0	0	1	1	36.1959	-0.111269	-0.111427	-0.000291017	2	4.21447e-06	3.2427e-08
2	0	0	1	1	36.2959	-0.116269	-0.116471	-0.000286727	2	4.18554e-06	3.33952e-08
2	0	0	1	1	36.3959	-0.121269	-0.121402	-0.000282206	2	4.15703e-06	3.42605e-08
2	0	0	1	1	36.4959	-0.126269	-0.126342	-0.000277865	2	4.12891e-06	3.51061e-08
2	0	0	1	1	36.5959	-0.131269	-0.131412	-0.000275141	2	4.10112e-06	3.61568e-08
2	0	0	1	1	36.6959	-0.136269	-0.136433	-0.000271824	2	4.07369e-06	3.70856e-08
2	0	0	1	1	36.7959	-0.141269	-0.141405	-0.000269232	2	4.04656e-06	3.80707e-08
2	0	0	1	1	36.8959	-0.146269	-0.146405	-0.000265936	2	4.0197e-06	3.89345e-08
2	0	0	1	1	36.9959	-0.15127	-0.151416	-0.000262624	2	3.99311e-06	3.97654e-08
2	0	0	1	1	37.0959	-0.15627	-0.156435	-0.00026178	2	3.96672e-06	4.09516e-08
2	0	0	1	1	37.1959	-0.16127	-0.161435	-0.000260132	2	3.94057e-06	4.19943e-08
2	0	0	1	1	37.2959	-0.16627	-0.166444	-0.000258192	2	3.91461e-06	4.29745e-08
2	0	0	1	1	37.3959	-0.17127	-0.171401	-0.000256705	2	3.88881e-06	4.39995e-08
2	0	0	1	1	37.4959	-0.17627	-0.176414	-0.000255463	2	3.86314e-06	4.50674e-08
2	0	0	1	1	37.5959	-0.18127	-0.181416	-0.000253329	2	3.8376e-06	4.5958e-08
2	0	0	1	1	37.6959	-0.18627	-0.186402	-0.000253239	2	3.81216e-06	4.72042e-08
2	0	0	1	1	37.7959	-0.19127	-0.191422	-0.000252904	2	3.78678e-06	4.84115e-08
2	0	0	1	1	37.8959	-0.196271	-0.196425	-0.000251344	2	3.76144e-06	4.93703e-08
2	1	0	1	0	37.9863	-0.199221	-0.199352	-0.000140584	2	3.74025e-06	2.80257e-08
2	1	0	1	0	38.0863	-0.19422	-0.194337	-0.000109679	2	3.72829e-06	2.13147e-08
2	1	0	1	0	38.1863	-0.18922	-0.189334	-9.54719e-05	2	3.71835e-06	1.80761e-08
2	1	0	1	0	38.2863	-0.18422	-0.184351	-8.38737e-05	2	3.70966e-06	1.54622e-08
2	1	0	1	0	38.3863	-0.17922	-0.179332	-7.43104e-05	2	3.70193e-06	1.33262e-08
2	1	0	1	0	38.4863	-0.17422	-0.174327	-6.93734e-05	2	3.695e-06	1.20936e-08
2	1	0	1	0	38.5863	-0.16922	-0.169359	-6.21258e-05	2	3.68874e-06	1.05216e-08
2	1	0	1	0	38.6863	-0.16422	-0.164321	-5.77964e-05	2	3.6831e-06	9.49719e-09
2	1	0	1	0	38.7863	-0.15922	-0.159318	-5.05065e-05	2	3.67799e-06	8.04658e-09
2	1	0	1	0	38.8863	-0.15422	-0.154333	-4.73994e-05	2	3.67339e-06	7.31529e-09
2	1	0	1	0	38.9863	-0.149219	-0.149273	-4.23086e-05	2	3.66921e-06	6.31554e-09
2	1	0	1	0	39.0863	-0.144219	-0.144343	-3.81046e-05	2	3.66544e-06	5.50015e-09
2	1	0	1	0	39.1863	-0.139219	-0.139369	-3.35509e-05	2	3.66207e-06	4.67596e-09
2	1	0	1	0	39.2863	-0.134219	-0.134309	-3.03166e-05	2	3.65903e-06	4.0718e-09
2	1	0	1	0	39.3863	-0.129219	-0.129285	-2.93327e-05	2	3.65632e-06	3.79229e-09
2	1	0	1	0	39.4863	-0.124219	-0.124332	-2.4325e-05	2	3.65389e-06	3.02438e-09
2	1	0	1	0	39.5863	-0.119219	-0.119302	-2.05519e-05	2	3.65184e-06	2.45189e-09
2	1	0	1	0	39.6863	-0.114219	-0.114338	-1.9289e-05	2	3.65009e-06	2.20545e-09
2	1	0	1	0	39.7863	-0.109219	-0.109317	-1.70509e-05	2	3.64857e-06	1.86396e-09
2	1	0	1	0	39.8863	-0.104219	-0.104345	-1.34016e-05	2	3.64731e-06	1.39839e-09
2	1	0	1	0	39.9863	-0.0992184	-0.0993263	-1.06831e-05	3	3.64629e-06	1.06111e-09
2	1	0	0	0	40.0865	-0.0942183	-0.0943649	-9.62855e-06	3	3.64551e-06	9.08597e-10
2	1	0	0	0	40.1865	-0.0892182	-0.0893431	-7.3499e-06	3	3.64497e-06	6.56662e-10
2	1	0	0	0	40.2865	-0.0842181	-0.0843721	-4.61375e-06	3	3.64464e-06	3.89272e-10
2	1	0	0	0	40.3865	-0.079218	-0.0793683	-2.43402e-06	3	3.64452e-06	1.93184e-10
2	1	0	0	0	40.4865	-0.0742178	-0.0743317	-1.33709e-06	3	3.6446e-06	9.93879e-11
2	1	0	0	0	40.5865	-0.0692177	-0.0693788	7.82589e-07	3	3.64488e-06	-5.4295e-11
2	1	0	0	0	40.6865	-0.0642176	-0.0643368	3.03298e-06	3	3.64535e-06	-1.95132e-10
2	1	0	0	0	40.7865	-0.0592175	-0.0593299	5.55009e-06	3	3.64601e-06	-3.29286e-10
2	1	0	0	0	40.8865	-0.0542174	-0.0543282	6.63819e-06	3	3.64685e-06	-3.60641e-10
2	1	0	0	0	40.9865	-0.0492173	-0.0493774	7.72276e-06	3	3.64794e-06	-3.8133e-10
2	1	0	0	0	41.0865	-0.0442172	-0.0443482	9.69759e-06	3	3.64919e-06	-4.3007e-10
2	1	0	0	0	41.1865	-0.0392171	-0.0393264	1.42072e-05	3	3.65068e-06	-5.58718e-10
2	1	0	0	0	41.2865	-0.034217	-0.0343268	1.57387e-05	3	3.6524e-06	-5.40258e-10
2	1	0	0	0	41.3865	-0.0292168	-0.0293612	1.75492e-05	3	3.6544e-06	-5.15266e-10
2	1	0	0	0	41.4865	-0.0242167	-0.0242737	2.08135e-05	3	3.65672e-06	-5.0522e-10
2	1	0	0	0	41.5865	-0.0192166	-0.0193123	2.61003e-05	3	3.65941e-06	-5.04057e-10
2	1	0	0	0	41.6865	-0.0142165	-0.014388	3.09721e-05	3	3.66256e-06	-4.45626e-10
2	1	0	0	0	41.7865	-0.0092164	-0.00937467	3.75837e-05	3	3.66627e-06	-3.52334e-10
2	1	0	0	0	41.8865	-0.00421629	-0.00435603	4.53753e-05	3	3.67069e-06	-1.97656e-10
2	1	0	0	0	41.9865	0.000783818	0.000677438	5.6576e-05	3	3.67607e-06	3.83267e-11
2	1	0	0	0	42.0865	0.00578393	0.00563458	6.82783e-05	3	3.68255e-06	3.8472e-10
2	1	0	0	0	42.1865	0.010784	0.0106458	8.3328e-05	3	3.6905e-06	8.87093e-10
2	1	0	0	0	42.2865	0.0157841	0.0156591	0.000107224	3	3.70029e-06	1.67903e-09
2	1	0	0	0	42.3865	0.0207843	0.0206894	0.000131828	3	3.71243e-06	2.72744e-09
2	1	0	0	0	42.4865	0.0257844	0.0256487	0.000163911	3	3.72745e-06	4.2041e-09
2	1	0	0	0	42.5865	0.0307845	0.0306949	0.000203289	3	3.74602e-06	6.23994e-09
2	1	0	0	0	42.6865	0.0357846	0.0356753	0.00024939	3	3.76882e-06	8.89708e-09
2	1	0	0	0	42.7865	0.0407847	0.0406929	0.000301199	3	3.79659e-06	1.22567e-08
2	1	0	0	0	42.8865	0.0457848	0.045702	0.000360813	3	3.82992e-06	1.64899e-08
2	1	0	0	0	42.9865	0.0507849	0.0507461	0.000424311	3	3.86936e-06	2.15321e-08
2	1	0	0	0	43.0865	0.055785	0.0556671	0.000487985	3	3.91519e-06	2.71647e-08
2	1	0	0	0	43.1865	0.0607851	0.060672	0.000549469	3	3.96732e-06	3.33374e-08
2	1	0	0	0	43.2865	0.0657852	0.0657256	0.000606536	3	4.02542e-06	3.9865e-08
2	1	0	0	0	43.3865	0.0707853	0.0706796	0.000652998	3	4.08875e-06	4.61536e-08
2	1	0	0	0	43.4865	0.0757855	0.0757152	0.000692927	3	4.15635e-06	5.24651e-08
2	1	0	0	0	43.5865	0.0807855	0.0806681	0.000717008	3	4.2271e-06	5.78397e-08
2	1	0	0	0	43.6865	0.0857857	0.0856581	0.000728179	3	4.29976e-06	6.23744e-08
2	1	0	0	0	43.7865	0.0907858	0.090682	0.000732551	3	4.37323e-06	6.64292e-08
2	1	0	0	0	43.8865	0.0957859	0.0956847	0.000726773	3	4.44647e-06	6.95411e-08
2	1	0	0	0	43.9865	0.100786	0.100702	0.000713583	3	4.51874e-06	7.18595e-08
2	1	0	0	0	44.0865	0.105786	0.105617	0.000695215	3	4.58948e-06	7.34265e-08
2	1	0	0	0	44.1865	0.110786	0.110677	0.000675733	3	4.65833e-06	7.47881e-08
2	1	0	0	0	44.2865	0.115786	0.11568	0.000655084	3	4.72511e-06	7.57799e-08
2	1	0	0	0	44.3865	0.120786	0.120639	0.000633548	3	4.78974e-06	7.64306e-08
2	1	0	0	0	44.4865	0.125787	0.125597	0.00061095	3	4.85225e-06	7.67337e-08
2	1	0	0	0	44.5865	0.130787	0.130703	0.000592364	3	4.91274e-06	7.74237e-08
2	1	0	0	0	44.6865	0.135787	0.135607	0.000574549	3	4.97129e-06	7.79127e-08
2	1	0	0	0	44.7865	0.140787	0.140641	0.000557031	3	5.02805e-06	7.83417e-08
2	1	0	0	0	44.8865	0.145787	0.145676	0.000540229	3	5.08317e-06	7.86984e-08
2	1	0	0	0	44.9865	0.150787	0.150681	0.000526059	3	5.13675e-06	7.9267e-08
2	1	0	0	0	45.0865	0.155787	0.155663	0.000511191	3	5.18898e-06	7.95738e-08
2	1	0	0	0	45.1865	0.160787	0.160676	0.000501708	3	5.23991e-06	8.06122e-08
2	1	0	0	0	45.2865	0.165787	0.165664	0.000489276	3	5.28967e-06	8.10552e-08
2	1	0	0	0	45.3865	0.170788	0.17065	0.000480156	3	5.33837e-06	8.19388e-08
2	1	0	0	0	45.4865	0.175788	0.175659	0.000470375	3	5.38607e-06	8.26259e-08
2	1	0	0	0	45.5865	0.180788	0.180708	0.000461512	3	5.43292e-06	8.33987e-08
2	1	0	0	0	45.6865	0.185788	0.185653	0.000453531	3	5.47893e-06	8.41995e-08
2	1	0	0	0	45.7865	0.190788	0.190638	0.000446902	3	5.5242e-06	8.51964e-08
2	1	0	0	0	45.8865	0.195788	0.195657	0.000440829	3	5.5688e-06	8.62511e-08
2	1	0	0	0	45.9865	0.200788	0.200679	0.000433661	3	5.61277e-06	8.70268e-08
2	1	0	0	0	46.0865	0.205788	0.205675	0.000428508	3	5.65622e-06	8.81333e-08
2	1	0	0	0	46.1865	0.210788	0.210647	0.00042396	3	5.69912e-06	8.93057e-08
2	1	0	0	0	46.2865	0.215788	0.215642	0.000420107	3	5.74157e-06	9.05928e-08
2	1	0	0	0	46.3865	0.220789	0.220632	0.000415368	3	5.78362e-06	9.16435e-08
2	1	0	0	0	46.4865	0.225789	0.225646	0.000411851	3	5.82531e-06	9.29327e-08
2	1	0	0	0	46.5865	0.230789	0.230634	0.000408389	3	5.86664e-06	9.41885e-08
2	1	0	0	0	46.6865	0.235789	0.235593	0.00040631	3	5.9077e-06	9.57236e-08
2	1	0	0	0	46.7865	0.240789	0.240656	0.000404832	3	5.9485e-06	9.7425e-08
2	1	0	0	0	46.8865	0.245789	0.24565	0.000401226	3	5.98911e-06	9.85612e-08
2	1	0	0	0	46.9865	0.250789	0.250664	0.000398185	3	6.02956e-06	9.98106e-08
2	1	0	0	0	47.0865	0.255789	0.255688	0.000399523	3	6.06991e-06	1.02153e-07
2	1	0	0	0	47.1865	0.260789	0.260663	0.000399561	3	6.11017e-06	1.04151e-07
2	1	0	0	0	47.2865	0.26579	0.26566	0.000397545	3	6.1504e-06	1.05612e-07
2	1	0	0	0	47.3865	0.27079	0.270713	0.000400193	3	6.19067e-06	1.08338e-07
2	1	0	0	0	47.4865	0.27579	0.27565	0.000401732	3	6.23099e-06	1.10737e-07
2	1	0	0	0	47.5865	0.28079	0.280715	0.000403796	3	6.27146e-06	1.13352e-07
2	1	0	0	0	47.6865	0.28579	0.285671	0.000403517	3	6.3121e-06	1.15273e-07
2	1	0	0	0	47.7865	0.29079	0.290655	0.000405755	3	6.35296e-06	1.17935e-07
2	1	0	0	0	47.8865	0.29579	0.295691	0.000410569	3	6.39412e-06	1.21401e-07
2	0	0	0	0	47.9761	0.29974	0.299551	0.000319727	3	6.43075e-06	9.57744e-08
2	0	0	0	0	48.0761	0.29474	0.294562	0.000274272	3	6.4598e-06	8.079e-08
2	0	0	0	0	48.1761	0.28974	0.289613	0.000254108	3	6.48591e-06	7.35932e-08
2	0	0	0	0	48.2761	0.28474	0.284581	0.00023631	3	6.51017e-06	6.72494e-08
2	0	0	0	0	48.3761	0.27974	0.279526	0.000226189	3	6.53311e-06	6.32257e-08
2	0	0	0	0	48.4761	0.27474	0.27458	0.000215064	3	6.55486e-06	5.90522e-08
2	0	0	0	0	48.5761	0.26974	0.269593	0.000205646	3	6.57563e-06	5.54406e-08
2	0	0	0	0	48.6761	0.26474	0.264583	0.000197746	3	6.59555e-06	5.23202e-08
2	0	0	0	0	48.7761	0.259739	0.259583	0.000189911	3	6.61473e-06	4.92976e-08
2	0	0	0	0	48.8761	0.254739	0.254531	0.000184184	3	6.63325e-06	4.68804e-08
2	0	0	0	0	48.9761	0.249739	0.249536	0.000178936	3	6.65117e-06	4.4651e-08
2	0	0	0	0	49.0761	0.244739	0.244547	0.000173603	3	6.66858e-06	4.24542e-08
2	0	0	0	0	49.1761	0.239739	0.239539	0.000168951	3	6.68547e-06	4.04703e-08
2	0	0	0	0	49.2761	0.234739	0.234543	0.000164727	3	6.70192e-06	3.86356e-08
2	0	0	0	0	49.3761	0.229739	0.229561	0.000160278	3	6.71793e-06	3.67935e-08
2	0	0	0	0	49.4761	0.224739	0.224558	0.000155185	3	6.73352e-06	3.4848e-08
2	0	0	0	0	49.5761	0.219739	0.219575	0.0001533	3	6.74873e-06	3.36609e-08
2	0	0	0	0	49.6761	0.214738	0.214575	0.000148706	3	6.76356e-06	3.19085e-08
2	0	0	0	0	49.7761	0.209738	0.209588	0.000145563	3	6.77805e-06	3.05083e-08
2	0	0	0	0	49.8761	0.204738	0.204631	0.000141571	3	6.79217e-06	2.89698e-08
2	0	0	0	0	49.9761	0.199738	0.199527	0.000138344	3	6.80593e-06	2.76034e-08
2	0	0	0	0	50.0761	0.194738	0.194529	0.000134375	3	6.81938e-06	2.61398e-08
2	0	0	0	0	50.1761	0.189738	0.189516	0.000132727	3	6.8325e-06	2.51539e-08
2	0	0	0	0	50.2761	0.184738	0.184524	0.000128415	3	6.8453e-06	2.36957e-08
2	0	0	0	0	50.3761	0.179738	0.17957	0.000125352	3	6.85776e-06	2.25095e-08
2	0	0	0	0	50.4761	0.174738	0.174601	0.000122493	3	6.86988e-06	2.13874e-08
2	0	0	0	0	50.5761	0.169737	0.169564	0.000118905	3	6.88167e-06	2.0162e-08
2	0	0	0	0	50.6761	0.164737	0.164548	0.00011513	3	6.89312e-06	1.89445e-08
2	0	0	0	0	50.7761	0.159737	0.159548	0.000111483	3	6.90422e-06	1.77868e-08
2	0	0	0	0	50.8761	0.154737	0.154541	0.000107277	3	6.91498e-06	1.65786e-08
2	0	0	0	0	50.9761	0.149737	0.149591	0.000104032	3	6.92529e-06	1.55622e-08
2	0	0	0	0	51.0761	0.144737	0.14459	9.89642e-05	3	6.93523e-06	1.43093e-08
2	0	0	0	0	51.1761	0.139737	0.139504	9.36173e-05	3	6.94474e-06	1.306e-08
2	0	0	0	0	51.2761	0.134737	0.134589	9.08953e-05	3	6.95377e-06	1.22335e-08
2	0	0	0	0	51.3761	0.129737	0.129596	8.41194e-05	3	6.96227e-06	1.09015e-08
2	0	0	0	0	51.4761	0.124737	0.124608	7.86665e-05	3	6.97016e-06	9.80248e-09
2	0	0	0	0	51.5761	0.119736	0.119584	7.19948e-05	3	6.9774e-06	8.60944e-09
2	0	0	0	0	51.6761	0.114736	0.114602	6.37528e-05	3	6.98385e-06	7.30618e-09
2	0	0	0	0	51.7761	0.109736	0.109569	5.29036e-05	3	6.98935e-06	5.79661e-09
2	0	0	0	0	51.8761	0.104736	0.104596	4.26126e-05	3	6.99377e-06	4.45711e-09
2	0	0	0	0	51.9761	0.099736	0.0996231	2.5551e-05	3	6.99687e-06	2.54547e-09
2	0	0	0	0	52.0761	0.0947358	0.0946002	8.27034e-06	3	6.99837e-06	7.82376e-10
2	0	0	0	0	52.1761	0.0897357	0.0896134	-1.17783e-05	3	6.99791e-06	-1.05549e-09
2	0	0	0	0	52.2761	0.0847356	0.0845757	-3.96361e-05	3	6.99506e-06	-3.35225e-09
2	0	0	0	0	52.3761	0.0797355	0.0796016	-7.1138e-05	3	6.98931e-06	-5.6627e-09
2	0	0	0	0	52.4761	0.0747354	0.074602	-0.000110083	3	6.98005e-06	-8.21245e-09
2	0	0	0	0	52.5761	0.0697353	0.0696205	-0.00015335	3	6.96662e-06	-1.06763e-08
2	0	0	0	0	52.6761	0.0647352	0.0646061	-0.000207442	3	6.94829e-06	-1.3402e-08
2	0	0	0	0	52.7761	0.0597351	0.0596214	-0.000266611	3	6.92434e-06	-1.58957e-08
2	0	0	0	0	52.8761	0.054735	0.054607	-0.000330676	3	6.89419e-06	-1.80572e-08
2	0	0	0	0	52.9761	0.0497349	0.0495852	-0.000399794	3	6.85739e-06	-1.98239e-08
2	0	0	0	0	53.0761	0.0447348	0.0445782	-0.000465883	3	6.81382e-06	-2.07683e-08
2	0	0	0	0	53.1761	0.0397347	0.0396105	-0.00052684	3	6.76386e-06	-2.08684e-08
2	0	0	0	0	53.2761	0.0347346	0.0345961	-0.000579378	3	6.70816e-06	-2.00442e-08
2	0	0	0	0	53.3761	0.0297344	0.0295828	-0.000617553	3	6.64786e-06	-1.82689e-08
2	0	0	0	0	53.4761	0.0247343	0.024596	-0.000644288	3	6.58435e-06	-1.58469e-08
2	0	0	0	0	53.5761	0.0197342	0.0195752	-0.000652687	3	6.51906e-06	-1.27765e-08
2	0	0	0	0	53.6761	0.0147341	0.0146266	-0.000650682	3	6.45345e-06	-9.51723e-09
2	0	0	0	0	53.7761	0.00973401	0.00953478	-0.000637856	3	6.38868e-06	-6.08182e-09
2	0	0	0	0	53.8761	0.0047339	0.00457446	-0.000616923	3	6.32564e-06	-2.82208e-09
2	0	0	0	0	53.9761	-0.000266205	-0.000378446	-0.000592409	3	6.26492e-06	2.24194e-10
2	0	0	0	0	54.0761	-0.00526631	-0.0054363	-0.000564909	3	6.20673e-06	3.07102e-09
2	0	0	0	0	54.1761	-0.0102664	-0.0104666	-0.000538133	3	6.15127e-06	5.63241e-09
2	0	0	0	0	54.2761	-0.0152665	-0.0154767	-0.000512364	3	6.09845e-06	7.92973e-09
2	0	0	0	0	54.3761	-0.0202666	-0.0204402	-0.000489292	3	6.04813e-06	1.00012e-08
2	0	0	0	0	54.4761	-0.0252668	-0.0254578	-0.000467411	3	6.00009e-06	1.18993e-08
2	0	0	0	0	54.5761	-0.0302669	-0.0304531	-0.000447124	3	5.95411e-06	1.36163e-08
2	0	0	0	0	54.6761	-0.035267	-0.0354548	-0.000428962	3	5.91001e-06	1.52088e-08
2	0	0	0	0	54.7761	-0.0402671	-0.0404459	-0.000414386	3	5.8676e-06	1.67602e-08
2	0	0	0	0	54.8761	-0.0452672	-0.0454666	-0.000400168	3	5.8267e-06	1.81943e-08
2	0	0	0	0	54.9761	-0.0502673	-0.0503824	-0.000386825	3	5.78715e-06	1.94892e-08
2	0	0	0	0	55.0761	-0.0552674	-0.0554742	-0.000374972	3	5.74877e-06	2.08013e-08
2	0	0	0	0	55.1761	-0.0602675	-0.0604239	-0.000365006	3	5.71153e-06	2.20551e-08
2	0	0	0	0	55.2761	-0.0652676	-0.0654669	-0.00035669	3	5.67528e-06	2.33514e-08
2	0	0	0	0	55.3761	-0.0702678	-0.070405	-0.000346652	3	5.63994e-06	2.4406e-08
2	0	0	0	0	55.4761	-0.0752679	-0.0754459	-0.000338685	3	5.60544e-06	2.55524e-08
2	0	0	0	0	55.5761	-0.080268	-0.0804497	-0.000332503	3	5.57168e-06	2.67497e-08
2	0	0	0	0	55.6761	-0.0852681	-0.0854482	-0.000323552	3	5.53864e-06	2.7647e-08
2	0	0	0	0	55.7761	-0.0902682	-0.0904021	-0.00031769	3	5.50626e-06	2.87198e-08
2	0	0	0	0	55.8761	-0.0952683	-0.0954208	-0.00031288	3	5.47446e-06	2.98552e-08
2	0	0	1	0	55.9763	-0.100268	-0.100413	-0.000306205	3	5.44319e-06	3.07469e-08
2	0	0	1	0	56.0763	-0.105269	-0.105488	-0.000302103	3	5.41249e-06	3.18682e-08
2	0	0	1	0	56.1763	-0.110269	-0.110399	-0.000296426	3	5.38228e-06	3.27252e-08
2	0	0	1	0	56.2763	-0.115269	-0.115414	-0.000293238	3	5.35254e-06	3.38436e-08
2	0	0	1	0	56.3763	-0.120269	-0.120431	-0.000289152	3	5.32321e-06	3.48229e-08
2	0	0	1	0	56.4763	-0.125269	-0.125414	-0.000285156	3	5.29428e-06	3.57625e-08
2	0	0	1	0	56.5763	-0.130269	-0.130445	-0.000280509	3	5.26572e-06	3.6591e-08
2	0	0	1	0	56.6763	-0.135269	-0.135399	-0.000278614	3	5.23752e-06	3.7724e-08
2	0	0	1	0	56.7763	-0.140269	-0.140411	-0.000274991	3	5.20964e-06	3.86118e-08
2	0	0	1	0	56.8763	-0.145269	-0.145389	-0.000272101	3	5.18206e-06	3.95604e-08
2	0	0	1	0	56.9763	-0.15027	-0.150411	-0.000268232	3	5.15475e-06	4.0345e-08
2	0	0	1	0	57.0763	-0.15527	-0.15541	-0.000267616	3	5.12768e-06	4.15902e-08
2	0	0	1	0	57.1763	-0.16027	-0.160453	-0.000265104	3	5.10086e-06	4.25368e-08
2	0	0	1	0	57.2763	-0.16527	-0.16544	-0.000262036	3	5.07424e-06	4.33512e-08
2	0	0	1	0	57.3763	-0.17027	-0.170433	-0.000259814	3	5.04779e-06	4.42809e-08
2	0	0	1	0	57.4763	-0.17527	-0.1754	-0.000260799	3	5.02152e-06	4.57442e-08
2	0	0	1	0	57.5763	-0.18027	-0.180426	-0.000261202	3	4.99537e-06	4.71276e-08
2	0	0	1	0	57.6763	-0.18527	-0.185421	-0.000256829	3	4.96932e-06	4.76214e-08
2	0	0	1	0	57.7763	-0.19027	-0.190457	-0.000255585	3	4.94337e-06	4.86779e-08
2	0	0	1	0	57.8763	-0.195271	-0.195448	-0.00025694	3	4.91744e-06	5.02183e-08
2	1	0	0	1	57.9712	-0.199996	-0.200253	-0.000255292	3	4.89289e-06	5.1123e-08
2	1	0	1	1	58.0667	-0.195221	-0.195324	-0.000118785	3	4.88055e-06	2.32015e-08
2	1	0	1	1	58.1667	-0.19022	-0.190354	-0.000101859	3	4.86994e-06	1.93893e-08
2	1	0	1	1	58.2667	-0.18522	-0.185343	-9.15328e-05	3	4.86064e-06	1.69649e-08
2	1	0	1	1	58.3667	-0.18022	-0.180351	-8.14008e-05	3	4.85235e-06	1.46807e-08
2	1	0	1	1	58.4667	-0.17522	-0.175324	-7.50806e-05	3	4.84487e-06	1.31635e-08
2	1	0	1	1	58.5667	-0.17022	-0.170392	-6.93168e-05	3	4.83809e-06	1.1811e-08
2	1	0	1	1	58.6667	-0.16522	-0.165335	-6.26028e-05	3	4.83192e-06	1.03504e-08
2	1	0	1	1	58.7667	-0.16022	-0.160327	-5.62013e-05	3	4.82629e-06	9.01059e-09
2	1	0	1	1	58.8667	-0.15522	-0.155341	-5.15027e-05	3	4.82115e-06	8.00049e-09
2	1	0	1	1	58.9667	-0.15022	-0.150327	-4.74436e-05	3	4.8165e-06	7.13204e-09
2	1	0	1	1	59.0667	-0.145219	-0.145304	-4.41687e-05	3	4.81223e-06	6.41788e-09
2	1	0	1	1	59.1667	-0.140219	-0.140327	-3.98251e-05	3	4.80837e-06	5.58852e-09
2	1	0	1	1	59.2667	-0.135219	-0.135274	-3.63418e-05	3	4.80485e-06	4.9161e-09
2	1	0	1	1	59.3667	-0.130219	-0.130366	-3.41567e-05	3	4.80166e-06	4.45286e-09
2	1	0	1	1	59.4667	-0.125219	-0.125333	-3.07794e-05	3	4.79881e-06	3.85768e-09
2	1	0	1	1	59.5667	-0.120219	-0.120306	-2.7213e-05	3	4.79628e-06	3.27389e-09
2	1	0	1	1	59.6667	-0.115219	-0.115331	-2.45405e-05	3	4.79402e-06	2.83028e-09
2	1	0	1	1	59.7667	-0.110219	-0.110347	-2.27829e-05	3	4.79206e-06	2.51403e-09
2	1	0	1	1	59.8667	-0.105219	-0.105377	-1.91724e-05	3	4.79035e-06	2.02034e-09
2	1	0	1	1	59.9667	-0.100218	-0.100294	-1.76904e-05	3	4.78889e-06	1.77424e-09
2	1	0	0	1	60.0669	-0.0952183	-0.095373	-1.39792e-05	3	4.78766e-06	1.33324e-09
2	1	0	0	1	60.1669	-0.0902182	-0.090347	-1.23188e-05	3	4.78667e-06	1.11296e-09
2	1	0	0	1	60.2669	-0.0852181	-0.085339	-1.08403e-05	3	4.7859e-06	9.251e-10
2	1	0	0	1	60.3669	-0.080218	-0.0803617	-6.94716e-06	3	4.78534e-06	5.58286e-10
2	1	0	0	1	60.4669	-0.0752179	-0.0753749	-5.29558e-06	3	4.785e-06	3.99154e-10
2	1	0	0	1	60.5669	-0.0702178	-0.0704135	-4.25164e-06	3	4.78484e-06	2.99373e-10
2	1	0	0	1	60.6669	-0.0652176	-0.0653768	-1.30529e-06	3	4.78488e-06	8.53358e-11
2	1	0	1	1	60.7002	-0.0635426	-0.0638343	-3.74468e-06	3	4.78495e-06	2.39039e-10