File: AutoAnalysis Examples/EC/C003A-10ppb-B_C01.mpt
EC-Lab ASCII FILE
Nb header lines : 59

Cyclic Voltammetry

Run on channel : 1 (SN 22398)
User :
CE vs. WE compliance from -10 V to 10 V
Electrode connection : standard
Ewe ctrl range : min = -1.00 V, max = 1.00 V
Safety Limits :
	Ewe min = -2.00 V
	Ewe max = 2.00 V
	|I| = 50.000 mA
	for t > 10 ms
Acquisition started on : 11/21/2018 11:02:24
Technique started on : 11/21/2018 11:02:24
Saved on :
	File : C003A-10ppb-B_C01.mpr
	Directory : \\ECCOMPUTER\Users\Lab User\Google Drive\Electrochemical Data\EC-Lab\Data\FREDsense\Tim\2018.11.21 - EC comparison to High Throughput\
	Host : 172.16.1.30
Device : SP-50 (SN 0301030103010301)
Address : USB
EC-Lab for windows v11.02 (software)
Internet server v11.02 (firmware)
Command interpretor v11.02 (firmware)
Electrode material : Au/Pd
Initial state :
Electrolyte : NaCl (0.2M)
Comments : Fe(CN)63-/Fe(CN)64- 5.10-3 M
Reference electrode : SCE Saturated Calomel Electrode (0.241 V)
Electrode surface area : 0.001 cm²
Characteristic mass : 0.001 g
Equivalent Weight : 0.000 g/eq.
Density : 0.000 g/cm3
Cycle Definition : Charge/Discharge alternance
Ei (V)              -0.100
vs.                 Ref
dE/dt               50.000
dE/dt unit          mV/s
E1 (V)              0.300
vs.                 Ref
Step percent        50
N                   10
E range min (V)     -1.000
E range max (V)     1.000
I Range             Auto
I Range min         Unset
I Range max         Unset
I Range init        Unset
Bandwidth           5
E2 (V)              -0.200
vs.                 Ref
nc cycles           2
Reverse Scan        1
Ef (V)              0.000
vs.                 Eoc

mode	ox/red	error	control changes	counter inc.	time/s	control/V	Ewe/V	<I>/mA	cycle number	(Q-Qo)/C	P/W
2	1	0	1	0	0.000000000000000E+000	-0.0984851	-0.0986215	-8.3228e-05	1	0.0000000E+000	8.20807e-09
2	1	0	0	0	0.111	-0.0929349	-0.0930473	-1.08185e-05	1	2.00424e-09	1.00663e-09
2	1	0	1	0	0.2265	-0.0871597	-0.0872803	3.82902e-05	1	7.44825e-09	-3.34198e-09
2	1	0	1	0	0.3265	-0.0821595	-0.0822701	4.50591e-05	1	1.18831e-08	-3.70702e-09
2	1	0	1	0	0.4265	-0.0771593	-0.0772897	4.67636e-05	1	1.67897e-08	-3.61435e-09
2	1	0	1	0	0.5265	-0.0721591	-0.0722965	4.98849e-05	1	2.20114e-08	-3.6065e-09
2	1	0	1	0	0.6265	-0.0671589	-0.0672651	5.26793e-05	1	2.751e-08	-3.54348e-09
2	1	0	1	0	0.7265	-0.0621587	-0.06229	5.5237e-05	1	3.32679e-08	-3.44071e-09
2	1	0	1	0	0.8265	-0.0571585	-0.0572745	5.7302e-05	1	3.92257e-08	-3.28194e-09
2	1	0	1	0	0.9265	-0.0521583	-0.0522856	6.13876e-05	1	4.5398e-08	-3.20969e-09
2	1	0	1	0	1.0265	-0.0471581	-0.0472871	6.28608e-05	1	5.17879e-08	-2.9725e-09
2	1	0	1	0	1.1265	-0.0421579	-0.0422875	6.26082e-05	1	5.83688e-08	-2.64755e-09
2	1	0	1	0	1.2265	-0.0371577	-0.037289	6.54645e-05	1	6.51801e-08	-2.44111e-09
2	1	0	1	0	1.3265	-0.0321575	-0.032263	6.86457e-05	1	7.22304e-08	-2.21472e-09
2	1	0	1	0	1.4265	-0.0271573	-0.0272528	7.09615e-05	1	7.95461e-08	-1.9339e-09
2	1	0	1	0	1.5265	-0.022157	-0.0223042	7.53845e-05	1	8.71842e-08	-1.68139e-09
2	1	0	1	0	1.6265	-0.0171568	-0.0172909	7.82549e-05	1	9.52219e-08	-1.35309e-09
2	1	0	1	0	1.7265	-0.0121566	-0.0122616	8.45239e-05	1	1.03721e-07	-1.0364e-09
2	1	0	1	0	1.8265	-0.00715643	-0.00727692	9.21017e-05	1	1.12823e-07	-6.70216e-10
2	1	0	1	0	1.9265	-0.00215623	-0.00222542	0.000100838	1	1.22685e-07	-2.24408e-10
2	1	0	1	0	2.0265	0.00284397	0.00279533	0.000111702	1	1.33592e-07	3.12243e-10
2	1	0	1	0	2.1265	0.00784417	0.0076984	0.000126278	1	1.45768e-07	9.72138e-10
2	1	0	1	0	2.2265	0.0128444	0.0126863	0.00014645	1	1.5963e-07	1.85791e-09
2	1	0	1	0	2.3265	0.0178446	0.0177187	0.000171293	1	1.75705e-07	3.03509e-09
2	1	0	1	0	2.4265	0.0228448	0.0227585	0.00020224	1	1.94616e-07	4.60269e-09
2	1	0	1	0	2.5265	0.027845	0.0276913	0.00024354	1	2.17191e-07	6.74394e-09
2	1	0	1	0	2.6265	0.0328452	0.0326707	0.000293374	1	2.44273e-07	9.58472e-09
2	1	0	1	0	2.7265	0.0378454	0.0377402	0.000354336	1	2.76859e-07	1.33727e-08
2	1	0	1	0	2.8265	0.0428456	0.0427302	0.000422833	1	3.16012e-07	1.80677e-08
2	1	0	1	0	2.9265	0.0478458	0.0477584	0.000501702	1	3.62612e-07	2.39605e-08
2	1	0	1	0	3.0265	0.052846	0.0527813	0.000586767	1	4.17422e-07	3.09703e-08
2	1	0	1	0	3.1265	0.0578462	0.0577713	0.000672237	1	4.8066e-07	3.8836e-08
2	1	0	1	0	3.2265	0.0628464	0.0627252	0.000751102	1	5.52151e-07	4.7113e-08
2	1	0	1	0	3.3265	0.0678466	0.0677301	0.000822635	1	6.31294e-07	5.57171e-08
2	1	0	1	0	3.4265	0.0728468	0.0727434	0.000879916	1	7.16878e-07	6.40081e-08
2	1	0	1	0	3.5265	0.077847	0.077727	0.000921144	1	8.07421e-07	7.15978e-08
2	1	0	1	0	3.6265	0.0828472	0.0826693	0.000943971	1	9.01236e-07	7.80374e-08
2	1	0	1	0	3.7265	0.0878474	0.087742	0.000955087	1	9.96683e-07	8.38012e-08
2	1	0	1	0	3.8265	0.0928476	0.0927522	0.000951344	1	1.09237e-06	8.82392e-08
2	1	0	1	0	3.9265	0.0978478	0.0977358	0.000936416	1	1.18712e-06	9.15214e-08
2	1	0	1	0	4.0265	0.102848	0.102768	0.000916009	1	1.28011e-06	9.41366e-08
2	1	0	1	0	4.1265	0.107848	0.107714	0.000891235	1	1.37084e-06	9.59983e-08
2	1	0	1	0	4.2265	0.112848	0.112747	0.000865624	1	1.45902e-06	9.75967e-08
2	1	0	1	0	4.3265	0.117849	0.117704	0.000839621	1	1.5446e-06	9.8827e-08
2	1	0	1	0	4.4265	0.122849	0.122755	0.00081442	1	1.62758e-06	9.99739e-08
2	1	0	1	0	4.5265	0.127849	0.127742	0.00079086	1	1.70809e-06	1.01026e-07
2	1	0	1	0	4.6265	0.132849	0.132697	0.00076813	1	1.78627e-06	1.01928e-07
2	1	0	1	0	4.7265	0.137849	0.137731	0.000747578	1	1.86231e-06	1.02965e-07
2	1	0	1	0	4.8265	0.14285	0.14269	0.000728615	1	1.9364e-06	1.03966e-07
2	1	0	0	0	4.9267	0.14785	0.147706	0.000711329	1	2.00884e-06	1.05068e-07
2	1	0	0	0	5.0267	0.15285	0.152745	0.000698362	1	2.07954e-06	1.06671e-07
2	1	0	0	0	5.1267	0.15785	0.157704	0.000682293	1	2.1488e-06	1.076e-07
2	1	0	0	0	5.2267	0.16285	0.162695	0.000670812	1	2.21673e-06	1.09138e-07
2	1	0	0	0	5.3267	0.167851	0.167704	0.000658846	1	2.28349e-06	1.10491e-07
2	1	0	0	0	5.4267	0.172851	0.172719	0.000649642	1	2.34917e-06	1.12206e-07
2	1	0	0	0	5.5267	0.177851	0.177709	0.000639695	1	2.41388e-06	1.1368e-07
2	1	0	0	0	5.6267	0.182851	0.18268	0.000632439	1	2.47775e-06	1.15534e-07
2	1	0	0	0	5.7267	0.187851	0.187721	0.000624818	1	2.54084e-06	1.17292e-07
2	1	0	0	0	5.8267	0.192852	0.192761	0.000618428	1	2.60324e-06	1.19209e-07
2	1	0	0	0	5.9267	0.197852	0.197704	0.000611897	1	2.66503e-06	1.20975e-07
2	1	0	0	0	6.0267	0.202852	0.202715	0.000607441	1	2.72627e-06	1.23137e-07
2	1	0	0	0	6.1267	0.207852	0.207705	0.000603392	1	2.78705e-06	1.25327e-07
2	1	0	0	0	6.2267	0.212852	0.212734	0.000599935	1	2.84741e-06	1.27627e-07
2	1	0	0	0	6.3267	0.217853	0.217721	0.000595228	1	2.90741e-06	1.29593e-07
2	1	0	0	0	6.4267	0.222853	0.222766	0.000593207	1	2.96709e-06	1.32146e-07
2	1	0	0	0	6.5267	0.227853	0.227686	0.000591331	1	3.0265e-06	1.34638e-07
2	1	0	0	0	6.6267	0.232853	0.232728	0.000587945	1	3.0857e-06	1.36831e-07
2	1	0	0	0	6.7267	0.237853	0.237721	0.000587134	1	3.14472e-06	1.39574e-07
2	1	0	0	0	6.8267	0.242854	0.2427	0.000585408	1	3.20359e-06	1.42079e-07
2	1	0	0	0	6.9267	0.247854	0.247734	0.000584626	1	3.26236e-06	1.44832e-07
2	1	0	0	0	7.0267	0.252854	0.252721	0.000583628	1	3.32105e-06	1.47495e-07
2	1	0	0	0	7.1267	0.257854	0.257771	0.000582208	1	3.37976e-06	1.50076e-07
2	1	0	0	0	7.2267	0.262854	0.262676	0.000584096	1	3.43843e-06	1.53428e-07
2	1	0	0	0	7.3267	0.267855	0.267721	0.000585818	1	3.49714e-06	1.56836e-07
2	1	0	0	0	7.4267	0.272855	0.272696	0.000586821	1	3.55591e-06	1.60024e-07
2	1	0	0	0	7.5267	0.277855	0.277744	0.000587233	1	3.61477e-06	1.631e-07
2	1	0	0	0	7.6267	0.282855	0.282708	0.000587194	1	3.67376e-06	1.66005e-07
2	1	0	0	0	7.7267	0.287855	0.287652	0.000589604	1	3.73287e-06	1.69601e-07
2	1	0	0	0	7.8267	0.292856	0.292728	0.000591524	1	3.79216e-06	1.73155e-07
2	1	0	0	0	7.9267	0.297856	0.297745	0.000592935	1	3.85166e-06	1.76544e-07
2	0	0	1	0	8.0153	0.297706	0.297514	0.00046334	1	3.89916e-06	1.3785e-07
2	0	0	1	0	8.1153	0.292706	0.292518	0.00041886	1	3.94297e-06	1.22524e-07
2	0	0	1	0	8.2153	0.287705	0.287551	0.000388415	1	3.98317e-06	1.11689e-07
2	0	0	1	0	8.3153	0.282705	0.282547	0.000365036	1	4.02072e-06	1.0314e-07
2	0	0	1	0	8.4153	0.277705	0.277529	0.000345746	1	4.05615e-06	9.59543e-08
2	0	0	1	0	8.5153	0.272705	0.272502	0.000330316	1	4.08988e-06	9.00116e-08
2	0	0	1	0	8.6153	0.267705	0.267521	0.000317577	1	4.12212e-06	8.49585e-08
2	0	0	1	0	8.7153	0.262704	0.262495	0.000305927	1	4.15311e-06	8.03044e-08
2	0	0	1	0	8.8153	0.257704	0.257544	0.00029414	1	4.183e-06	7.57541e-08
2	0	0	1	0	8.9153	0.252704	0.252518	0.000284888	1	4.21186e-06	7.19394e-08
2	0	0	1	0	9.0153	0.247704	0.247491	0.000277801	1	4.23986e-06	6.87533e-08
2	0	0	1	0	9.1153	0.242704	0.242528	0.000269826	1	4.26704e-06	6.54402e-08
2	0	0	1	0	9.2153	0.237703	0.237532	0.000263502	1	4.29347e-06	6.25903e-08
2	0	0	1	0	9.3153	0.232703	0.232517	0.000255878	1	4.31922e-06	5.9496e-08
2	0	0	1	0	9.4153	0.227703	0.227526	0.000248975	1	4.34433e-06	5.66483e-08
2	0	0	1	0	9.5153	0.222703	0.222514	0.000244109	1	4.36885e-06	5.43175e-08
2	0	0	1	0	9.6153	0.217703	0.217532	0.000239665	1	4.39282e-06	5.21347e-08
2	0	0	1	0	9.7153	0.212702	0.212505	0.000241057	1	4.4166e-06	5.12257e-08
2	0	0	1	0	9.8153	0.207702	0.207534	0.000234878	1	4.44037e-06	4.87451e-08
2	0	0	1	0	9.9153	0.202702	0.202496	0.00022612	1	4.46319e-06	4.57884e-08
2	0	0	1	0	10.0153	0.197702	0.197547	0.000217698	1	4.48515e-06	4.30054e-08
2	0	0	1	0	10.1153	0.192702	0.192543	0.000212508	1	4.50652e-06	4.09169e-08
2	0	0	1	0	10.2153	0.187701	0.18748	0.000208078	1	4.52741e-06	3.90104e-08
2	0	0	1	0	10.3153	0.182701	0.182529	0.000203572	1	4.54785e-06	3.71577e-08
2	0	0	1	0	10.4153	0.177701	0.177521	0.000200364	1	4.56785e-06	3.55688e-08
2	0	0	1	0	10.5153	0.172701	0.172485	0.000194975	1	4.58743e-06	3.36303e-08
2	0	0	1	0	10.6153	0.167701	0.16753	0.000190674	1	4.60656e-06	3.19436e-08
2	0	0	1	0	10.7153	0.1627	0.162533	0.000186131	1	4.62522e-06	3.02523e-08
2	0	0	1	0	10.8153	0.1577	0.157548	0.000180558	1	4.64342e-06	2.84465e-08
2	0	0	1	0	10.9153	0.1527	0.152527	0.000172575	1	4.6611e-06	2.63224e-08
2	0	0	1	0	11.0153	0.1477	0.147517	0.00017048	1	4.67827e-06	2.51488e-08
2	0	0	0	0	11.1155	0.1427	0.14254	0.000166546	1	4.69494e-06	2.37395e-08
2	0	0	0	0	11.2155	0.137699	0.137546	0.000157291	1	4.71094e-06	2.16346e-08
2	0	0	0	0	11.3155	0.132699	0.132545	0.000150529	1	4.72628e-06	1.99518e-08
2	0	0	0	0	11.4155	0.127699	0.127532	0.000143069	1	4.74087e-06	1.82459e-08
2	0	0	0	0	11.5155	0.122699	0.122556	0.000133771	1	4.7546e-06	1.63945e-08
2	0	0	0	0	11.6155	0.117699	0.117554	0.000124807	1	4.7674e-06	1.46715e-08
2	0	0	0	0	11.7155	0.112698	0.112547	0.000110449	1	4.77901e-06	1.24307e-08
2	0	0	0	0	11.8155	0.107698	0.107544	9.61786e-05	1	4.78929e-06	1.03434e-08
2	0	0	0	0	11.9155	0.102698	0.102569	7.8345e-05	1	4.79792e-06	8.03577e-09
2	0	0	0	0	12.0155	0.0976978	0.0975227	5.68339e-05	1	4.80454e-06	5.54259e-09
2	0	0	0	0	12.1155	0.0926976	0.0925338	2.91615e-05	1	4.80869e-06	2.69842e-09
2	0	0	0	0	12.2155	0.0876974	0.0875215	-3.8701e-06	1	4.80984e-06	-3.38717e-10
2	0	0	0	0	12.3155	0.0826972	0.0824881	-4.37907e-05	1	4.80738e-06	-3.61221e-09
2	0	0	0	0	12.4155	0.077697	0.0775701	-9.36701e-05	1	4.80051e-06	-7.266e-09
2	0	0	0	0	12.5155	0.0726968	0.0725717	-0.000150001	1	4.78825e-06	-1.08858e-08
2	0	0	0	0	12.6155	0.0676966	0.0675456	-0.000217913	1	4.76976e-06	-1.47191e-08
2	0	0	0	0	12.7155	0.0626964	0.0625853	-0.000292729	1	4.74416e-06	-1.83205e-08
2	0	0	0	0	12.8155	0.0576962	0.0575614	-0.000373644	1	4.71073e-06	-2.15074e-08
2	0	0	0	0	12.9155	0.052696	0.0525289	-0.000457523	1	4.66906e-06	-2.40332e-08
2	0	0	0	0	13.0155	0.0476958	0.0474764	-0.00053823	1	4.61901e-06	-2.55532e-08
2	0	0	0	0	13.1155	0.0426956	0.0425532	-0.000608248	1	4.56146e-06	-2.58829e-08
2	0	0	0	0	13.2155	0.0376954	0.0375441	-0.000666599	1	4.49741e-06	-2.50268e-08
2	0	0	0	0	13.3155	0.0326952	0.0325944	-0.00070756	1	4.42838e-06	-2.30625e-08
2	0	0	0	0	13.4155	0.027695	0.0275651	-0.000727584	1	4.35629e-06	-2.00559e-08
2	0	0	0	0	13.5155	0.0226948	0.0224977	-0.000731329	1	4.28299e-06	-1.64532e-08
2	0	0	0	0	13.6155	0.0176946	0.0175385	-0.0007194	1	4.21018e-06	-1.26172e-08
2	0	0	0	0	13.7155	0.0126944	0.0125336	-0.000697486	1	4.13914e-06	-8.74203e-09
2	0	0	0	0	13.8155	0.00769417	0.00754468	-0.000667221	1	4.07074e-06	-5.03397e-09
2	0	0	0	0	13.9155	0.00269396	0.00253984	-0.000635593	1	4.00546e-06	-1.6143e-09
2	0	0	0	0	14.0155	-0.00230624	-0.00244487	-0.000601023	1	3.94347e-06	1.46942e-09
2	0	0	0	0	14.1155	-0.00730644	-0.00744654	-0.000567905	1	3.88494e-06	4.22893e-09
2	0	0	0	0	14.2155	-0.0123066	-0.0124864	-0.000538712	1	3.8295e-06	6.72656e-09
2	0	0	0	0	14.3155	-0.0173068	-0.0174923	-0.000510732	1	3.77697e-06	8.93387e-09
2	0	0	0	0	14.4155	-0.0223071	-0.0224674	-0.000484992	1	3.72709e-06	1.08965e-08
2	0	0	0	0	14.5155	-0.0273073	-0.0274405	-0.000462983	1	3.6796e-06	1.27045e-08
2	0	0	0	0	14.6155	-0.0323075	-0.0324771	-0.000441655	1	3.63427e-06	1.43437e-08
2	0	0	0	0	14.7155	-0.0373077	-0.0374661	-0.000423085	1	3.59085e-06	1.58514e-08
2	0	0	0	0	14.8155	-0.0423079	-0.0424572	-0.00040658	1	3.54914e-06	1.72622e-08
2	0	0	0	0	14.9155	-0.0473081	-0.0475373	-0.000394127	1	3.50897e-06	1.87357e-08
2	0	0	0	0	15.0155	-0.0523083	-0.0525209	-0.000384301	1	3.47018e-06	2.01838e-08
2	0	0	0	0	15.1155	-0.0573085	-0.057494	-0.00036826	1	3.43261e-06	2.11727e-08
2	0	0	0	0	15.2155	-0.0623087	-0.0624872	-0.000358356	1	3.3962e-06	2.23926e-08
2	0	0	0	0	15.3155	-0.0673089	-0.0675047	-0.000348312	1	3.36079e-06	2.35127e-08
2	0	0	0	0	15.4155	-0.0723091	-0.0724142	-0.000338341	1	3.32634e-06	2.45007e-08
2	0	0	0	0	15.5155	-0.0773093	-0.0775346	-0.000330221	1	3.29274e-06	2.56035e-08
2	0	0	0	0	15.6155	-0.0823095	-0.0824694	-0.000322888	1	3.25991e-06	2.66284e-08
2	0	0	0	0	15.7155	-0.0873097	-0.087504	-0.000316215	1	3.22781e-06	2.76701e-08
2	0	0	0	0	15.8155	-0.0923099	-0.0924834	-0.00031076	1	3.19636e-06	2.87402e-08
2	0	0	0	0	15.9155	-0.0973101	-0.0974543	-0.000303825	1	3.16554e-06	2.96091e-08
2	0	0	1	0	16.0157	-0.10231	-0.102509	-0.000299072	1	3.13523e-06	3.06576e-08
2	0	0	1	0	16.1157	-0.107311	-0.1075	-0.000293163	1	3.10552e-06	3.15151e-08
2	0	0	1	0	16.2157	-0.112311	-0.112493	-0.000288765	1	3.0763e-06	3.24841e-08
2	0	0	1	0	16.3157	-0.117311	-0.1175	-0.000284125	1	3.04754e-06	3.33847e-08
2	0	0	1	0	16.4157	-0.122311	-0.122419	-0.000279384	1	3.01921e-06	3.42019e-08
2	0	0	1	0	16.5157	-0.127311	-0.127511	-0.000276315	1	2.99129e-06	3.52333e-08
2	0	0	1	0	16.6157	-0.132312	-0.13248	-0.000272039	1	2.96372e-06	3.60397e-08
2	0	0	1	0	16.7157	-0.137312	-0.137479	-0.000267983	1	2.93651e-06	3.68422e-08
2	0	0	1	0	16.8157	-0.142312	-0.142482	-0.000266309	1	2.90962e-06	3.79442e-08
2	0	0	1	0	16.9157	-0.147312	-0.147473	-0.000263204	1	2.88303e-06	3.88154e-08
2	0	0	1	0	17.0157	-0.152312	-0.152526	-0.000260093	1	2.85672e-06	3.96709e-08
2	0	0	1	0	17.1157	-0.157313	-0.157484	-0.000257977	1	2.8306e-06	4.06272e-08
2	0	0	1	0	17.2157	-0.162313	-0.162466	-0.000255771	1	2.80474e-06	4.15541e-08
2	0	0	1	0	17.3157	-0.167313	-0.167504	-0.000255401	1	2.77907e-06	4.27808e-08
2	0	0	1	0	17.4157	-0.172313	-0.172511	-0.000253958	1	2.75359e-06	4.38106e-08
2	0	0	1	0	17.5157	-0.177313	-0.177484	-0.000250358	1	2.72824e-06	4.44346e-08
2	0	0	1	0	17.6157	-0.182314	-0.182479	-0.00024985	1	2.70302e-06	4.55924e-08
2	0	0	1	0	17.7157	-0.187314	-0.187451	-0.000249129	1	2.67792e-06	4.66996e-08
2	0	0	1	0	17.8157	-0.192314	-0.192473	-0.000249532	1	2.65288e-06	4.80282e-08
2	0	0	1	0	17.9157	-0.197314	-0.197459	-0.000248521	1	2.62788e-06	4.90728e-08
2	1	0	0	1	18.0051	-0.198214	-0.198318	-0.000134144	1	2.60947e-06	2.66031e-08
2	1	0	0	1	18.1051	-0.193214	-0.193319	-0.000110912	1	2.59774e-06	2.14414e-08
2	1	0	0	1	18.2051	-0.188214	-0.188325	-9.71411e-05	1	2.58777e-06	1.82941e-08
2	1	0	0	1	18.3051	-0.183214	-0.183369	-8.66399e-05	1	2.57897e-06	1.58871e-08
2	1	0	0	1	18.4051	-0.178213	-0.178326	-7.74952e-05	1	2.57113e-06	1.38194e-08
2	1	0	0	1	18.5051	-0.173213	-0.173336	-7.02566e-05	1	2.56407e-06	1.2178e-08
2	1	0	0	1	18.6051	-0.168213	-0.168361	-6.36449e-05	1	2.55768e-06	1.07153e-08
2	1	0	0	1	18.7051	-0.163213	-0.163305	-5.76622e-05	1	2.55191e-06	9.41652e-09
2	1	0	0	1	18.8051	-0.158213	-0.158371	-5.28258e-05	1	2.54667e-06	8.36608e-09
2	1	0	0	1	18.9051	-0.153212	-0.153313	-4.81448e-05	1	2.54195e-06	7.38124e-09
2	1	0	0	1	19.0051	-0.148212	-0.148282	-4.48187e-05	1	2.53766e-06	6.64581e-09
2	1	0	0	1	19.1051	-0.143212	-0.143329	-3.89808e-05	1	2.53378e-06	5.58708e-09
2	1	0	0	1	19.2051	-0.138212	-0.138344	-3.53349e-05	1	2.53028e-06	4.88839e-09
2	1	0	0	1	19.3051	-0.133212	-0.133386	-3.19558e-05	1	2.52715e-06	4.26246e-09
2	1	0	0	1	19.4051	-0.128211	-0.128332	-2.88187e-05	1	2.52436e-06	3.69834e-09
2	1	0	0	1	19.5051	-0.123211	-0.123369	-2.62963e-05	1	2.52188e-06	3.24415e-09
2	1	0	0	1	19.6051	-0.118211	-0.11836	-2.37632e-05	1	2.51971e-06	2.81262e-09
2	1	0	0	1	19.7051	-0.113211	-0.113363	-2.09088e-05	1	2.51784e-06	2.37027e-09
2	1	0	0	1	19.8051	-0.108211	-0.108346	-1.70562e-05	1	2.51623e-06	1.84798e-09
2	1	0	0	1	19.9051	-0.10321	-0.103353	-1.31384e-05	1	2.51487e-06	1.35789e-09
2	1	0	1	1	20.0053	-0.0982101	-0.0983597	-1.3209e-05	2	2.51376e-06	1.29924e-09
2	1	0	1	1	20.1053	-0.09321	-0.0933697	-1.07573e-05	2	2.51288e-06	1.0044e-09
2	1	0	1	1	20.2053	-0.0882097	-0.0883118	-7.43822e-06	2	2.51225e-06	6.56882e-10
2	1	0	1	1	20.3053	-0.0832095	-0.0833176	-6.2512e-06	2	2.51182e-06	5.20835e-10
2	1	0	1	1	20.4053	-0.0782093	-0.0783456	-3.81004e-06	2	2.5116e-06	2.985e-10
2	1	0	1	1	20.5053	-0.0732091	-0.0733174	-1.19224e-06	2	2.51159e-06	8.74121e-11
2	1	0	1	1	20.6053	-0.0682089	-0.0683549	-2.1037e-06	2	2.5118e-06	1.43798e-10
2	1	0	1	1	20.7053	-0.0632087	-0.063383	2.75742e-06	2	2.51219e-06	-1.74773e-10
2	1	0	1	1	20.8053	-0.0582085	-0.0583315	2.76095e-06	2	2.51278e-06	-1.6105e-10
2	1	0	1	1	20.9053	-0.0532083	-0.0533733	4.92302e-06	2	2.51356e-06	-2.62758e-10
2	1	0	1	1	21.0053	-0.0482081	-0.0484076	8.60596e-06	2	2.51457e-06	-4.16594e-10
2	1	0	1	1	21.1053	-0.0432079	-0.0432597	9.13234e-06	2	2.51579e-06	-3.95062e-10
2	1	0	1	1	21.2053	-0.0382077	-0.0383121	1.32339e-05	2	2.51722e-06	-5.07019e-10
2	1	0	1	1	21.3053	-0.0332075	-0.0333072	1.54136e-05	2	2.51891e-06	-5.13386e-10
2	1	0	1	1	21.4053	-0.0282073	-0.0283246	1.74591e-05	2	2.52087e-06	-4.94523e-10
2	1	0	1	1	21.5053	-0.0232071	-0.0233951	2.04797e-05	2	2.52317e-06	-4.79123e-10
2	1	0	1	1	21.6053	-0.0182069	-0.0183616	2.577e-05	2	2.52585e-06	-4.73178e-10
2	1	0	1	1	21.7053	-0.0132067	-0.0133695	2.93293e-05	2	2.52901e-06	-3.92117e-10
2	1	0	1	1	21.8053	-0.00820648	-0.00834234	3.87089e-05	2	2.53276e-06	-3.22923e-10
2	1	0	1	1	21.9053	-0.00320627	-0.00331311	4.57621e-05	2	2.53725e-06	-1.51615e-10
2	1	0	1	1	22.0053	0.00179393	0.00171082	5.65548e-05	2	2.54275e-06	9.67551e-11
2	1	0	1	1	22.1053	0.00679413	0.0066881	7.0262e-05	2	2.54943e-06	4.6992e-10
2	1	0	1	1	22.2053	0.0117943	0.0117004	9.01145e-05	2	2.55768e-06	1.05437e-09
2	1	0	1	1	22.3053	0.0167945	0.0166914	0.000112832	2	2.56798e-06	1.88333e-09
2	1	0	1	1	22.4053	0.0217947	0.0216825	0.000140104	2	2.58085e-06	3.0378e-09
2	1	0	1	1	22.5053	0.0267949	0.0266502	0.000177042	2	2.59701e-06	4.71822e-09
2	1	0	1	1	22.6053	0.0317951	0.0316466	0.000222471	2	2.61719e-06	7.04044e-09
2	1	0	1	1	22.7053	0.0367953	0.0366949	0.000274901	2	2.64228e-06	1.00875e-08
2	1	0	1	1	22.8053	0.0417955	0.0416828	0.000337746	2	2.67318e-06	1.40782e-08
2	1	0	1	1	22.9053	0.0467957	0.046641	0.00040714	2	2.7107e-06	1.89894e-08
2	1	0	1	1	23.0053	0.0517959	0.051666	0.000484711	2	2.75558e-06	2.50431e-08
2	1	0	1	1	23.1053	0.0567961	0.0567239	0.000562484	2	2.80819e-06	3.19063e-08
2	1	0	1	1	23.2053	0.0617963	0.0616736	0.00063607	2	2.86852e-06	3.92287e-08
2	1	0	1	1	23.3053	0.0667965	0.0666678	0.000706984	2	2.93621e-06	4.71331e-08
2	1	0	1	1	23.4053	0.0717967	0.0716886	0.000766241	2	3.01038e-06	5.49308e-08
2	1	0	1	1	23.5053	0.0767969	0.0767528	0.000813228	2	3.08985e-06	6.24175e-08
2	1	0	1	1	23.6053	0.0817971	0.0816368	0.000843873	2	3.17316e-06	6.8891e-08
2	1	0	1	1	23.7053	0.0867973	0.0866967	0.000860244	2	3.25881e-06	7.45803e-08
2	1	0	1	1	23.8053	0.0917976	0.0916783	0.000861781	2	3.34541e-06	7.90065e-08
2	1	0	1	1	23.9053	0.0967978	0.0966715	0.000855725	2	3.43171e-06	8.27242e-08
2	1	0	1	1	24.0053	0.101798	0.101702	0.000838102	2	3.51676e-06	8.52364e-08
2	1	0	1	1	24.1053	0.106798	0.1067	0.000817059	2	3.59992e-06	8.71804e-08
2	1	0	1	1	24.2053	0.111798	0.111629	0.000792697	2	3.68076e-06	8.84878e-08
2	1	0	1	1	24.3053	0.116799	0.116677	0.000765482	2	3.75909e-06	8.93142e-08
2	1	0	1	1	24.4053	0.121799	0.121693	0.000741302	2	3.83483e-06	9.02109e-08
2	1	0	1	1	24.5053	0.126799	0.126638	0.000714873	2	3.90805e-06	9.05301e-08
2	1	0	1	1	24.6053	0.131799	0.131632	0.00069322	2	3.97885e-06	9.12502e-08
2	1	0	1	1	24.7053	0.136799	0.136655	0.000670845	2	4.04738e-06	9.16744e-08
2	1	0	1	1	24.8053	0.1418	0.14166	0.000651187	2	4.11381e-06	9.22471e-08
2	1	0	1	1	24.9053	0.1468	0.146643	0.000632352	2	4.17828e-06	9.27297e-08
2	1	0	0	1	25.0055	0.1518	0.151607	0.000615796	2	4.2411e-06	9.3359e-08
2	1	0	0	1	25.1055	0.1568	0.156663	0.000599368	2	4.3022e-06	9.38987e-08
2	1	0	0	1	25.2055	0.1618	0.161616	0.000585774	2	4.36178e-06	9.46703e-08
2	1	0	0	1	25.3055	0.166801	0.166581	0.000572123	2	4.42001e-06	9.53051e-08
2	1	0	0	1	25.4055	0.171801	0.171691	0.0005615	2	4.47699e-06	9.64046e-08
2	1	0	0	1	25.5055	0.176801	0.176626	0.000549831	2	4.53283e-06	9.71145e-08
2	1	0	0	1	25.6055	0.181801	0.181668	0.000539293	2	4.58765e-06	9.79723e-08
2	1	0	0	1	25.7055	0.186801	0.186626	0.000529742	2	4.64152e-06	9.88638e-08
2	1	0	0	1	25.8055	0.191802	0.19169	0.000522186	2	4.69453e-06	1.00098e-07
2	1	0	0	1	25.9055	0.196802	0.196631	0.000515759	2	4.74675e-06	1.01414e-07
2	1	0	0	1	26.0055	0.201802	0.201691	0.000507537	2	4.79827e-06	1.02365e-07
2	1	0	0	1	26.1055	0.206802	0.206684	0.000502299	2	4.84917e-06	1.03817e-07
2	1	0	0	1	26.2055	0.211802	0.211721	0.000496857	2	4.89946e-06	1.05195e-07
2	1	0	0	1	26.3055	0.216803	0.216636	0.000491662	2	4.94923e-06	1.06512e-07
2	1	0	0	1	26.4055	0.221803	0.221625	0.000485757	2	4.99855e-06	1.07656e-07
2	1	0	0	1	26.5055	0.226803	0.22667	0.0004822	2	5.04743e-06	1.093e-07
2	1	0	0	1	26.6055	0.231803	0.231674	0.000480191	2	5.09597e-06	1.11248e-07
2	1	0	0	1	26.7055	0.236803	0.236599	0.000478077	2	5.14417e-06	1.13113e-07
2	1	0	0	1	26.8055	0.241804	0.241666	0.000474297	2	5.19211e-06	1.14621e-07
2	1	0	0	1	26.9055	0.246804	0.246636	0.000472117	2	5.23983e-06	1.16441e-07
2	1	0	0	1	27.0055	0.251804	0.251641	0.000470481	2	5.28739e-06	1.18393e-07
2	1	0	0	1	27.1055	0.256804	0.256689	0.000470667	2	5.33484e-06	1.20815e-07
2	1	0	0	1	27.2055	0.261804	0.261664	0.000469501	2	5.38221e-06	1.22851e-07
2	1	0	0	1	27.3055	0.266805	0.266663	0.00046931	2	5.42955e-06	1.25148e-07
2	1	0	0	1	27.4055	0.271805	0.271664	0.000471209	2	5.47692e-06	1.28011e-07
2	1	0	0	1	27.5055	0.276805	0.27671	0.000471165	2	5.52438e-06	1.30376e-07
2	1	0	0	1	27.6055	0.281805	0.281675	0.000472709	2	5.57197e-06	1.3315e-07
2	1	0	0	1	27.7055	0.286805	0.286664	0.000475017	2	5.61974e-06	1.3617e-07
2	1	0	0	1	27.8055	0.291806	0.291612	0.00047866	2	5.66774e-06	1.39583e-07
2	1	0	0	1	27.9055	0.296806	0.296612	0.000479471	2	5.71604e-06	1.42217e-07
2	0	0	0	1	27.9951	0.298706	0.298546	0.000375792	2	5.75688e-06	1.12191e-07
2	0	0	0	1	28.0951	0.293706	0.293495	0.000338731	2	5.79208e-06	9.9416e-08
2	0	0	0	1	28.1951	0.288705	0.288553	0.000315291	2	5.82448e-06	9.09782e-08
2	0	0	0	1	28.2951	0.283705	0.283535	0.000298288	2	5.85493e-06	8.45751e-08
2	0	0	0	1	28.3951	0.278705	0.278506	0.00028507	2	5.88383e-06	7.93937e-08
2	0	0	0	1	28.4951	0.273705	0.273544	0.00027401	2	5.91146e-06	7.49538e-08
2	0	0	0	1	28.5951	0.268705	0.268553	0.000263967	2	5.93802e-06	7.08889e-08
2	0	0	0	1	28.6951	0.263704	0.263549	0.000254269	2	5.96361e-06	6.70123e-08
2	0	0	0	1	28.7951	0.258704	0.258499	0.000246504	2	5.98837e-06	6.37212e-08
2	0	0	0	1	28.8951	0.253704	0.253555	0.000237686	2	6.01236e-06	6.02666e-08
2	0	0	0	1	28.9951	0.248704	0.248482	0.000232583	2	6.0357e-06	5.77928e-08
2	0	0	0	1	29.0951	0.243704	0.243549	0.000225761	2	6.05842e-06	5.49838e-08
2	0	0	0	1	29.1951	0.238703	0.238487	0.000221328	2	6.08056e-06	5.27839e-08
2	0	0	0	1	29.2951	0.233703	0.233534	0.000215458	2	6.10216e-06	5.03167e-08
2	0	0	0	1	29.3951	0.228703	0.228556	0.000209832	2	6.12326e-06	4.79584e-08
2	0	0	0	1	29.4951	0.223703	0.22348	0.000206006	2	6.1439e-06	4.60383e-08
2	0	0	0	1	29.5951	0.218703	0.218544	0.000201972	2	6.16407e-06	4.41398e-08
2	0	0	0	1	29.6951	0.213702	0.213511	0.000198389	2	6.18381e-06	4.23583e-08
2	0	0	0	1	29.7951	0.208702	0.208524	0.000192574	2	6.20313e-06	4.01564e-08
2	0	0	0	1	29.8951	0.203702	0.203525	0.000188688	2	6.22204e-06	3.84027e-08
2	0	0	0	1	29.9951	0.198702	0.198536	0.000186131	2	6.24055e-06	3.69535e-08
2	0	0	0	1	30.0951	0.193702	0.193552	0.000182686	2	6.25867e-06	3.53592e-08
2	0	0	0	1	30.1951	0.188701	0.188519	0.000177848	2	6.2764e-06	3.35276e-08
2	0	0	0	1	30.2951	0.183701	0.183569	0.000175345	2	6.29376e-06	3.21878e-08
2	0	0	0	1	30.3951	0.178701	0.178509	0.000170743	2	6.31073e-06	3.04792e-08
2	0	0	0	1	30.4951	0.173701	0.173573	0.000166686	2	6.3273e-06	2.89322e-08
2	0	0	0	1	30.5951	0.168701	0.168528	0.000162277	2	6.34348e-06	2.73482e-08
2	0	0	0	1	30.6951	0.1637	0.163544	0.00015772	2	6.35925e-06	2.57941e-08
2	0	0	0	1	30.7951	0.1587	0.158562	0.000152869	2	6.3746e-06	2.42392e-08
2	0	0	0	1	30.8951	0.1537	0.153569	0.000149437	2	6.38952e-06	2.2949e-08
2	0	0	0	1	30.9951	0.1487	0.148482	0.000144028	2	6.40395e-06	2.13856e-08
2	0	0	1	1	31.0953	0.1437	0.143542	0.000138244	2	6.41793e-06	1.98437e-08
2	0	0	1	1	31.1953	0.138699	0.138527	0.000133729	2	6.43134e-06	1.85251e-08
2	0	0	1	1	31.2953	0.133699	0.133513	0.000127145	2	6.44416e-06	1.69755e-08
2	0	0	1	1	31.3953	0.128699	0.128578	0.00011953	2	6.45632e-06	1.5369e-08
2	0	0	1	1	31.4953	0.123699	0.123506	0.00011224	2	6.46771e-06	1.38624e-08
2	0	0	1	1	31.5953	0.118699	0.118508	0.000102799	2	6.47821e-06	1.21825e-08
2	0	0	1	1	31.6953	0.113698	0.113528	9.19675e-05	2	6.48768e-06	1.04409e-08
2	0	0	1	1	31.7953	0.108698	0.10849	7.85994e-05	2	6.49592e-06	8.52723e-09
2	0	0	1	1	31.8953	0.103698	0.10358	6.10043e-05	2	6.50266e-06	6.31885e-09
2	0	0	1	1	31.9953	0.0986978	0.0985362	4.1717e-05	2	6.50759e-06	4.11064e-09
2	0	0	1	1	32.0953	0.0936976	0.0935218	1.68391e-05	2	6.51029e-06	1.57483e-09
2	0	0	1	1	32.1953	0.0886974	0.0885509	-1.63656e-05	2	6.51027e-06	-1.44919e-09
2	0	0	1	1	32.2953	0.0836972	0.0835938	-5.11654e-05	2	6.50688e-06	-4.2771e-09
2	0	0	1	1	32.3953	0.078697	0.0785773	-9.53394e-05	2	6.4994e-06	-7.49151e-09
2	0	0	1	1	32.4953	0.0736968	0.073547	-0.000148819	2	6.487e-06	-1.09452e-08
2	0	0	1	1	32.5953	0.0686966	0.0685358	-0.000211409	2	6.46881e-06	-1.44891e-08
2	0	0	1	1	32.6953	0.0636964	0.0635617	-0.000281357	2	6.44396e-06	-1.78835e-08
2	0	0	1	1	32.7953	0.0586962	0.0585769	-0.000360126	2	6.41166e-06	-2.10951e-08
2	0	0	1	1	32.8953	0.053696	0.0535583	-0.000440903	2	6.37139e-06	-2.3614e-08
2	0	0	1	1	32.9953	0.0486958	0.048563	-0.000524581	2	6.32295e-06	-2.54752e-08
2	0	0	1	1	33.0953	0.0436956	0.0435094	-0.000596547	2	6.26675e-06	-2.59554e-08
2	0	0	1	1	33.1953	0.0386954	0.0384664	-0.000658721	2	6.20368e-06	-2.53386e-08
2	0	0	1	1	33.2953	0.0336952	0.0335167	-0.000705018	2	6.13508e-06	-2.36299e-08
2	0	0	1	1	33.3953	0.028695	0.0285426	-0.000734209	2	6.06272e-06	-2.09562e-08
2	0	0	1	1	33.4953	0.0236948	0.0235049	-0.000746014	2	5.98838e-06	-1.7535e-08
2	0	0	1	1	33.5953	0.0186946	0.0185657	-0.000740947	2	5.91381e-06	-1.37562e-08
2	0	0	1	1	33.6953	0.0136944	0.0135206	-0.000721684	2	5.84044e-06	-9.75761e-09
2	0	0	1	1	33.7953	0.00869421	0.00854014	-0.000694856	2	5.76929e-06	-5.93417e-09
2	0	0	1	1	33.8953	0.003694	0.00355332	-0.000664601	2	5.70105e-06	-2.36154e-09
2	0	0	1	1	33.9953	-0.0013062	-0.00148121	-0.000634417	2	5.63596e-06	9.39707e-10
2	0	0	1	1	34.0953	-0.0063064	-0.0064797	-0.000600098	2	5.57414e-06	3.88845e-09
2	0	0	1	1	34.1953	-0.0113066	-0.0114973	-0.000568905	2	5.51554e-06	6.54085e-09
2	0	0	1	1	34.2953	-0.0163068	-0.0164852	-0.000540171	2	5.45988e-06	8.90481e-09
2	0	0	1	1	34.3953	-0.021307	-0.0214677	-0.00051352	2	5.40697e-06	1.10241e-08
2	0	0	1	1	34.4953	-0.0263072	-0.0265023	-0.000491254	2	5.35652e-06	1.30194e-08
2	0	0	1	1	34.5953	-0.0313074	-0.0314499	-0.000470015	2	5.3083e-06	1.47819e-08
2	0	0	1	1	34.6953	-0.0363076	-0.0364452	-0.000451199	2	5.26207e-06	1.6444e-08
2	0	0	1	1	34.7953	-0.0413078	-0.0414702	-0.000433152	2	5.21762e-06	1.79629e-08
2	0	0	1	1	34.8953	-0.046308	-0.0464411	-0.000417555	2	5.17479e-06	1.93917e-08
2	0	0	1	1	34.9953	-0.0513082	-0.0514661	-0.000405619	2	5.1334e-06	2.08756e-08
2	0	0	1	1	35.0953	-0.0563084	-0.0564964	-0.000393496	2	5.09326e-06	2.22311e-08
2	0	0	1	1	35.1953	-0.0613086	-0.0614875	-0.000381918	2	5.05435e-06	2.34831e-08
2	0	0	1	1	35.2953	-0.0663089	-0.0665379	-0.000370115	2	5.01649e-06	2.46267e-08
2	0	0	1	1	35.3953	-0.071309	-0.071512	-0.000363277	2	4.97963e-06	2.59787e-08
2	0	0	1	1	35.4953	-0.0763093	-0.0764755	-0.000353313	2	4.94366e-06	2.70198e-08
2	0	0	1	1	35.5953	-0.0813095	-0.0815026	-0.00034579	2	4.90852e-06	2.81828e-08
2	0	0	1	1	35.6953	-0.0863097	-0.0864714	-0.000338222	2	4.87414e-06	2.92466e-08
2	0	0	1	1	35.7953	-0.0913099	-0.091506	-0.000332462	2	4.84048e-06	3.04223e-08
2	0	0	1	1	35.8953	-0.0963101	-0.0964567	-0.00032493	2	4.80748e-06	3.13417e-08
2	0	0	0	1	35.9955	-0.10131	-0.101488	-0.000318707	2	4.77505e-06	3.2345e-08
2	0	0	0	1	36.0955	-0.10631	-0.106481	-0.000312873	2	4.74322e-06	3.33151e-08
2	0	0	0	1	36.1955	-0.111311	-0.111414	-0.000309321	2	4.71193e-06	3.44627e-08
2	0	0	0	1	36.2955	-0.116311	-0.116459	-0.000305881	2	4.68115e-06	3.56227e-08
2	0	0	0	1	36.3955	-0.121311	-0.121471	-0.000298351	2	4.65081e-06	3.62412e-08
2	0	0	0	1	36.4955	-0.126311	-0.126503	-0.00029337	2	4.62092e-06	3.71121e-08
2	0	0	0	1	36.5955	-0.131311	-0.131438	-0.000291422	2	4.59142e-06	3.83038e-08
2	0	0	0	1	36.6955	-0.136312	-0.136432	-0.000287163	2	4.56232e-06	3.91782e-08
2	0	0	0	1	36.7955	-0.141312	-0.141441	-0.000283579	2	4.53356e-06	4.01097e-08
2	0	0	0	1	36.8955	-0.146312	-0.146458	-0.000279559	2	4.50512e-06	4.09435e-08
2	0	0	0	1	36.9955	-0.151312	-0.15151	-0.000277451	2	4.477e-06	4.20367e-08
2	0	0	0	1	37.0955	-0.156313	-0.156491	-0.000275164	2	4.44913e-06	4.30605e-08
2	0	0	0	1	37.1955	-0.161313	-0.161488	-0.00027292	2	4.42152e-06	4.40734e-08
2	0	0	0	1	37.2955	-0.166313	-0.16647	-0.000270209	2	4.39415e-06	4.49816e-08
2	0	0	0	1	37.3955	-0.171313	-0.17144	-0.000268831	2	4.36698e-06	4.60886e-08
2	0	0	0	1	37.4955	-0.176313	-0.176435	-0.000266192	2	4.33999e-06	4.69655e-08
2	0	0	0	1	37.5955	-0.181314	-0.181474	-0.000266404	2	4.31314e-06	4.83456e-08
2	0	0	0	1	37.6955	-0.186314	-0.186524	-0.00026423	2	4.28643e-06	4.92852e-08
2	0	0	0	1	37.7955	-0.191314	-0.191493	-0.000265611	2	4.25981e-06	5.08626e-08
2	0	0	0	1	37.8955	-0.196314	-0.196504	-0.000263382	2	4.23325e-06	5.17556e-08
2	1	0	1	0	37.9849	-0.199214	-0.199335	-0.000156066	2	4.2112e-06	3.11096e-08
2	1	0	1	0	38.0849	-0.194214	-0.1943	-0.000125605	2	4.19765e-06	2.4405e-08
2	1	0	1	0	38.1849	-0.189214	-0.189337	-0.000111961	2	4.18609e-06	2.11984e-08
2	1	0	1	0	38.2849	-0.184214	-0.18434	-0.00010093	2	4.17576e-06	1.86054e-08
2	1	0	1	0	38.3849	-0.179213	-0.179315	-9.10417e-05	2	4.1664e-06	1.63252e-08
2	1	0	1	0	38.4849	-0.174213	-0.174341	-8.4983e-05	2	4.15785e-06	1.4816e-08
2	1	0	1	0	38.5849	-0.169213	-0.169312	-7.7414e-05	2	4.14998e-06	1.31071e-08
2	1	0	1	0	38.6849	-0.164213	-0.164307	-7.1917e-05	2	4.14275e-06	1.18165e-08
2	1	0	1	0	38.7849	-0.159213	-0.159352	-6.52541e-05	2	4.13606e-06	1.03984e-08
2	1	0	1	0	38.8849	-0.154212	-0.154351	-6.25692e-05	2	4.1299e-06	9.65763e-09
2	1	0	1	0	38.9849	-0.149212	-0.149281	-5.57068e-05	2	4.12418e-06	8.31594e-09
2	1	0	1	0	39.0849	-0.144212	-0.144236	-5.30819e-05	2	4.11888e-06	7.65629e-09
2	1	0	1	0	39.1849	-0.139212	-0.139291	-4.98829e-05	2	4.114e-06	6.94825e-09
2	1	0	1	0	39.2849	-0.134212	-0.13427	-4.54528e-05	2	4.10949e-06	6.10297e-09
2	1	0	1	0	39.3849	-0.129211	-0.12931	-4.18388e-05	2	4.10532e-06	5.41017e-09
2	1	0	1	0	39.4849	-0.124211	-0.124288	-3.81311e-05	2	4.10151e-06	4.73925e-09
2	1	0	1	0	39.5849	-0.119211	-0.119292	-3.59938e-05	2	4.098e-06	4.29376e-09
2	1	0	1	0	39.6849	-0.114211	-0.114326	-3.29538e-05	2	4.09481e-06	3.76748e-09
2	1	0	1	0	39.7849	-0.109211	-0.109296	-2.91755e-05	2	4.09189e-06	3.18876e-09
2	1	0	1	0	39.8849	-0.10421	-0.104356	-2.73561e-05	2	4.08924e-06	2.85477e-09
2	1	0	1	0	39.9849	-0.0992102	-0.099336	-2.36643e-05	3	4.08685e-06	2.35072e-09
2	1	0	0	0	40.0851	-0.09421	-0.094293	-2.13239e-05	3	4.08471e-06	2.01069e-09
2	1	0	0	0	40.1851	-0.0892098	-0.0893115	-2.05643e-05	3	4.08281e-06	1.83663e-09
2	1	0	0	0	40.2851	-0.0842096	-0.0843469	-1.72064e-05	3	4.08114e-06	1.45131e-09
2	1	0	0	0	40.3851	-0.0792094	-0.0793484	-1.56378e-05	3	4.07969e-06	1.24084e-09
2	1	0	0	0	40.4851	-0.0742092	-0.0743245	-1.41982e-05	3	4.07846e-06	1.05528e-09
2	1	0	0	0	40.5851	-0.069209	-0.0693854	-1.19425e-05	3	4.07744e-06	8.28637e-10
2	1	0	0	0	40.6851	-0.0642088	-0.064335	-8.43623e-06	3	4.07662e-06	5.42745e-10
2	1	0	0	0	40.7851	-0.0592086	-0.0593937	-7.20682e-06	3	4.07601e-06	4.2804e-10
2	1	0	0	0	40.8851	-0.0542084	-0.0544132	-6.73696e-06	3	4.07559e-06	3.6658e-10
2	1	0	0	0	40.9851	-0.0492081	-0.0493384	-5.07125e-06	3	4.07543e-06	2.50207e-10
2	1	0	0	0	41.0851	-0.0442079	-0.0443315	-1.81931e-06	3	4.07544e-06	8.06528e-11
2	1	0	0	0	41.1851	-0.0392077	-0.0392895	1.78767e-06	3	4.0757e-06	-7.02366e-11
2	1	0	0	0	41.2851	-0.0342075	-0.0343154	2.81394e-06	3	4.0762e-06	-9.65616e-11
2	1	0	0	0	41.3851	-0.0292073	-0.0293614	6.47038e-06	3	4.07698e-06	-1.8998e-10
2	1	0	0	0	41.4851	-0.0242071	-0.0243205	1.20186e-05	3	4.07811e-06	-2.923e-10
2	1	0	0	0	41.5851	-0.0192069	-0.0193708	1.61891e-05	3	4.07959e-06	-3.13596e-10
2	1	0	0	0	41.6851	-0.0142067	-0.0143395	1.91531e-05	3	4.08155e-06	-2.74645e-10
2	1	0	0	0	41.7851	-0.00920652	-0.00933992	2.69906e-05	3	4.08408e-06	-2.5209e-10
2	1	0	0	0	41.8851	-0.00420631	-0.00432659	3.46585e-05	3	4.08733e-06	-1.49953e-10
2	1	0	0	0	41.9851	0.000793888	0.000689921	4.64951e-05	3	4.09152e-06	3.2078e-11
2	1	0	0	0	42.0851	0.00579409	0.00565024	5.71589e-05	3	4.09685e-06	3.22962e-10
2	1	0	0	0	42.1851	0.0107943	0.0107028	7.57202e-05	3	4.10365e-06	8.10417e-10
2	1	0	0	0	42.2851	0.0157945	0.0156992	9.53554e-05	3	4.11234e-06	1.497e-09
2	1	0	0	0	42.3851	0.0207947	0.0207029	0.000122895	3	4.12347e-06	2.54429e-09
2	1	0	0	0	42.4851	0.0257949	0.0257099	0.000155102	3	4.1376e-06	3.98766e-09
2	1	0	0	0	42.5851	0.0307951	0.0306904	0.000196978	3	4.1555e-06	6.04533e-09
2	1	0	0	0	42.6851	0.0357953	0.0357037	0.000246789	3	4.17793e-06	8.81126e-09
2	1	0	0	0	42.7851	0.0407955	0.0407245	0.000305376	3	4.20578e-06	1.24363e-08
2	1	0	0	0	42.8851	0.0457957	0.0456498	0.000371051	3	4.23983e-06	1.69384e-08
2	1	0	0	0	42.9851	0.0507959	0.0507087	0.000443839	3	4.28081e-06	2.25065e-08
2	1	0	0	0	43.0851	0.0557961	0.0557136	0.000518654	3	4.32919e-06	2.88961e-08
2	1	0	0	0	43.1851	0.0607963	0.0606781	0.00059219	3	4.38508e-06	3.59329e-08
2	1	0	0	0	43.2851	0.0657965	0.0657211	0.000663418	3	4.44826e-06	4.36006e-08
2	1	0	0	0	43.3851	0.0707967	0.0707292	0.000725229	3	4.51801e-06	5.12949e-08
2	1	0	0	0	43.4851	0.0757969	0.0757043	0.000776564	3	4.59336e-06	5.87893e-08
2	1	0	0	0	43.5851	0.0807971	0.0807018	0.000812337	3	4.67301e-06	6.5557e-08
2	1	0	0	0	43.6851	0.0857973	0.0857342	0.000832207	3	4.75551e-06	7.13486e-08
2	1	0	0	0	43.7851	0.0907975	0.090634	0.000839377	3	4.83947e-06	7.60762e-08
2	1	0	0	0	43.8851	0.0957977	0.0956877	0.000836208	3	4.92361e-06	8.00148e-08
2	1	0	0	0	43.9851	0.100798	0.100743	0.000823831	3	5.00691e-06	8.29955e-08
2	1	0	0	0	44.0851	0.105798	0.105707	0.000804205	3	5.08862e-06	8.501e-08
2	1	0	0	0	44.1851	0.110798	0.110691	0.000783197	3	5.16824e-06	8.66925e-08
2	1	0	0	0	44.2851	0.115798	0.115646	0.000758187	3	5.24547e-06	8.76809e-08
2	1	0	0	0	44.3851	0.120799	0.120669	0.000732872	3	5.32021e-06	8.84353e-08
2	1	0	0	0	44.4851	0.125799	0.125626	0.000706679	3	5.39242e-06	8.87769e-08
2	1	0	0	0	44.5851	0.130799	0.1307	0.000683366	3	5.46222e-06	8.93162e-08
2	1	0	0	0	44.6851	0.135799	0.13568	0.000662192	3	5.5297e-06	8.98461e-08
2	1	0	0	0	44.7851	0.1408	0.140593	0.000640541	3	5.59503e-06	9.00559e-08
2	1	0	0	0	44.8851	0.1458	0.14564	0.000620169	3	5.65835e-06	9.03212e-08
2	1	0	1	0	44.9853	0.1508	0.150652	0.00060276	3	5.71994e-06	9.08069e-08
2	1	0	1	0	45.0853	0.1558	0.155676	0.000586187	3	5.77977e-06	9.12552e-08
2	1	0	1	0	45.1853	0.1608	0.160637	0.000571683	3	5.83801e-06	9.18337e-08
2	1	0	1	0	45.2853	0.165801	0.165672	0.000559303	3	5.89485e-06	9.26607e-08
2	1	0	1	0	45.3853	0.170801	0.170679	0.000545587	3	5.95036e-06	9.312e-08
2	1	0	1	0	45.4853	0.175801	0.175627	0.000534644	3	6.00469e-06	9.38981e-08
2	1	0	1	0	45.5853	0.180801	0.180654	0.000523994	3	6.05794e-06	9.46619e-08
2	1	0	1	0	45.6853	0.185801	0.185641	0.00051453	3	6.11016e-06	9.5518e-08
2	1	0	1	0	45.7853	0.190802	0.190676	0.000505341	3	6.16145e-06	9.63564e-08
2	1	0	1	0	45.8853	0.195802	0.195651	0.000496896	3	6.21191e-06	9.72182e-08
2	1	0	1	0	45.9853	0.200802	0.200653	0.000489804	3	6.26161e-06	9.82805e-08
2	1	0	1	0	46.0853	0.205802	0.205708	0.000484033	3	6.31061e-06	9.95697e-08
2	1	0	1	0	46.1853	0.210802	0.210623	0.000477256	3	6.35893e-06	1.00521e-07
2	1	0	1	0	46.2853	0.215803	0.215673	0.000471732	3	6.40669e-06	1.0174e-07
2	1	0	1	0	46.3853	0.220803	0.220665	0.000467374	3	6.45391e-06	1.03133e-07
2	1	0	1	0	46.4853	0.225803	0.225637	0.000461549	3	6.50064e-06	1.04142e-07
2	1	0	1	0	46.5853	0.230803	0.230674	0.000458194	3	6.54693e-06	1.05694e-07
2	1	0	1	0	46.6853	0.235803	0.23562	0.000454054	3	6.59283e-06	1.06984e-07
2	1	0	1	0	46.7853	0.240804	0.240667	0.000450901	3	6.63836e-06	1.08517e-07
2	1	0	1	0	46.8853	0.245804	0.245627	0.000448083	3	6.68359e-06	1.10062e-07
2	1	0	1	0	46.9853	0.250804	0.250646	0.000443752	3	6.72856e-06	1.11225e-07
2	1	0	1	0	47.0853	0.255804	0.255632	0.000444505	3	6.77332e-06	1.1363e-07
2	1	0	1	0	47.1853	0.260804	0.260667	0.000441382	3	6.8179e-06	1.15054e-07
2	1	0	1	0	47.2853	0.265805	0.265663	0.000441878	3	6.86235e-06	1.17391e-07
2	1	0	1	0	47.3853	0.270805	0.270695	0.00044084	3	6.90675e-06	1.19333e-07
2	1	0	1	0	47.4853	0.275805	0.275652	0.000440976	3	6.95111e-06	1.21556e-07
2	1	0	1	0	47.5853	0.280805	0.280669	0.000443157	3	6.99551e-06	1.2438e-07
2	1	0	1	0	47.6853	0.285805	0.28565	0.00044158	3	7.03999e-06	1.26137e-07
2	1	0	1	0	47.7853	0.290806	0.290633	0.000444782	3	7.08459e-06	1.29268e-07
2	1	0	1	0	47.8853	0.295806	0.295624	0.000443743	3	7.12941e-06	1.31181e-07
2	0	0	1	0	47.9749	0.299706	0.299523	0.000358621	3	7.16918e-06	1.07415e-07
2	0	0	1	0	48.0749	0.294706	0.294534	0.000316404	3	7.20209e-06	9.31918e-08
2	0	0	1	0	48.1749	0.289706	0.289486	0.000292521	3	7.23223e-06	8.46806e-08
2	0	0	1	0	48.2749	0.284705	0.284525	0.00027804	3	7.26059e-06	7.91094e-08
2	0	0	1	0	48.3749	0.279705	0.279494	0.000266016	3	7.28755e-06	7.43498e-08
2	0	0	1	0	48.4749	0.274705	0.274536	0.000256157	3	7.31338e-06	7.03244e-08
2	0	0	1	0	48.5749	0.269705	0.269496	0.000246759	3	7.33825e-06	6.65004e-08
2	0	0	1	0	48.6749	0.264705	0.264578	0.000239543	3	7.36224e-06	6.33778e-08
2	0	0	1	0	48.7749	0.259704	0.259567	0.000230449	3	7.3855e-06	5.9817e-08
2	0	0	1	0	48.8749	0.254704	0.254507	0.000225989	3	7.40805e-06	5.75158e-08
2	0	0	1	0	48.9749	0.249704	0.249501	0.00021919	3	7.43001e-06	5.46882e-08
2	0	0	1	0	49.0749	0.244704	0.2445	0.000214559	3	7.45142e-06	5.24598e-08
2	0	0	1	0	49.1749	0.239703	0.239517	0.000209682	3	7.47228e-06	5.02223e-08
2	0	0	1	0	49.2749	0.234703	0.234525	0.00020484	3	7.49267e-06	4.80401e-08
2	0	0	1	0	49.3749	0.229703	0.229523	0.000199507	3	7.51259e-06	4.57916e-08
2	0	0	1	0	49.4749	0.224703	0.224474	0.000194627	3	7.53206e-06	4.36886e-08
2	0	0	1	0	49.5749	0.219703	0.219535	0.00019161	3	7.55113e-06	4.2065e-08
2	0	0	1	0	49.6749	0.214702	0.214546	0.000187985	3	7.56978e-06	4.03314e-08
2	0	0	1	0	49.7749	0.209702	0.209517	0.000184394	3	7.58804e-06	3.86338e-08
2	0	0	1	0	49.8749	0.204702	0.204506	0.000179874	3	7.60593e-06	3.67853e-08
2	0	0	1	0	49.9749	0.199702	0.19946	0.000175594	3	7.62342e-06	3.5024e-08
2	0	0	1	0	50.0749	0.194702	0.194514	0.000172713	3	7.64055e-06	3.3595e-08
2	0	0	1	0	50.1749	0.189701	0.189514	0.000169035	3	7.65732e-06	3.20346e-08
2	0	0	1	0	50.2749	0.184701	0.184564	0.000164771	3	7.67373e-06	3.04109e-08
2	0	0	1	0	50.3749	0.179701	0.179507	0.00016109	3	7.68976e-06	2.89169e-08
2	0	0	1	0	50.4749	0.174701	0.174544	0.000158493	3	7.70541e-06	2.76641e-08
2	0	0	1	0	50.5749	0.169701	0.169533	0.000154286	3	7.72069e-06	2.61565e-08
2	0	0	1	0	50.6749	0.1647	0.164509	0.00014893	3	7.73557e-06	2.45003e-08
2	0	0	1	0	50.7749	0.1597	0.15954	0.00014582	3	7.75007e-06	2.32641e-08
2	0	0	1	0	50.8749	0.1547	0.154545	0.000141826	3	7.76414e-06	2.19184e-08
2	0	0	1	0	50.9749	0.1497	0.149525	0.000137532	3	7.77773e-06	2.05644e-08
2	0	0	0	0	51.0751	0.1447	0.144464	0.000130759	3	7.79091e-06	1.889e-08
2	0	0	0	0	51.1751	0.139699	0.139535	0.000125646	3	7.80354e-06	1.7532e-08
2	0	0	0	0	51.2751	0.134699	0.134522	0.000120129	3	7.81559e-06	1.616e-08
2	0	0	0	0	51.3751	0.129699	0.129528	0.000113964	3	7.82701e-06	1.47616e-08
2	0	0	0	0	51.4751	0.124699	0.124498	0.000106148	3	7.8377e-06	1.32152e-08
2	0	0	0	0	51.5751	0.119699	0.11956	9.65954e-05	3	7.84757e-06	1.15489e-08
2	0	0	0	0	51.6751	0.114698	0.114568	8.62496e-05	3	7.85646e-06	9.88149e-09
2	0	0	0	0	51.7751	0.109698	0.109521	7.31978e-05	3	7.86416e-06	8.01671e-09
2	0	0	0	0	51.8751	0.104698	0.104539	5.79361e-05	3	7.87047e-06	6.05656e-09
2	0	0	0	0	51.9751	0.0996979	0.0995624	3.9048e-05	3	7.87507e-06	3.88772e-09
2	0	0	0	0	52.0751	0.0946977	0.0945576	1.6772e-05	3	7.8776e-06	1.58592e-09
2	0	0	0	0	52.1751	0.0896975	0.0895485	-1.23453e-05	3	7.87755e-06	-1.1055e-09
2	0	0	0	0	52.2751	0.0846973	0.0845585	-4.71344e-05	3	7.87436e-06	-3.98562e-09
2	0	0	0	0	52.3751	0.0796971	0.079578	-8.803e-05	3	7.86734e-06	-7.00525e-09
2	0	0	0	0	52.4751	0.0746969	0.0745	-0.000138992	3	7.85569e-06	-1.03549e-08
2	0	0	0	0	52.5751	0.0696967	0.0695832	-0.000197273	3	7.83857e-06	-1.37269e-08
2	0	0	0	0	52.6751	0.0646964	0.0645348	-0.000266192	3	7.81512e-06	-1.71787e-08
2	0	0	0	0	52.7751	0.0596963	0.0595406	-0.000338351	3	7.78453e-06	-2.01456e-08
2	0	0	0	0	52.8751	0.0546961	0.0545559	-0.000418837	3	7.74624e-06	-2.285e-08
2	0	0	0	0	52.9751	0.0496959	0.0495436	-0.00050004	3	7.69994e-06	-2.47738e-08
2	0	0	0	0	53.0751	0.0446957	0.0445504	-0.000575755	3	7.64581e-06	-2.56501e-08
2	0	0	0	0	53.1751	0.0396955	0.0395838	-0.000639826	3	7.58462e-06	-2.53267e-08
2	0	0	0	0	53.2751	0.0346953	0.0345418	-0.000692563	3	7.51753e-06	-2.39224e-08
2	0	0	0	0	53.3751	0.0296951	0.0295772	-0.000726285	3	7.44616e-06	-2.14815e-08
2	0	0	0	0	53.4751	0.0246949	0.0245332	-0.000744433	3	7.37228e-06	-1.82633e-08
2	0	0	0	0	53.5751	0.0196946	0.0195262	-0.000742379	3	7.29761e-06	-1.44958e-08
2	0	0	0	0	53.6751	0.0146944	0.0145404	-0.000727962	3	7.22368e-06	-1.05849e-08
2	0	0	0	0	53.7751	0.00969425	0.00952712	-0.000705408	3	7.15162e-06	-6.72051e-09
2	0	0	0	0	53.8751	0.00469405	0.00458164	-0.000676773	3	7.08224e-06	-3.10073e-09
2	0	0	0	0	53.9751	-0.000306156	-0.000434871	-0.000644459	3	7.01591e-06	2.80256e-10
2	0	0	0	0	54.0751	-0.00530636	-0.00550969	-0.000612704	3	6.9527e-06	3.37581e-09
2	0	0	0	0	54.1751	-0.0103066	-0.010487	-0.000582519	3	6.89271e-06	6.10886e-09
2	0	0	0	0	54.2751	-0.0153068	-0.015512	-0.000553781	3	6.8357e-06	8.59023e-09
2	0	0	0	0	54.3751	-0.020307	-0.0204468	-0.00052578	3	6.78148e-06	1.07505e-08
2	0	0	0	0	54.4751	-0.0253072	-0.0254856	-0.00050201	3	6.72976e-06	1.2794e-08
2	0	0	0	0	54.5751	-0.0303074	-0.0305244	-0.000480753	3	6.68032e-06	1.46747e-08
2	0	0	0	0	54.6751	-0.0353076	-0.0354476	-0.000462928	3	6.63291e-06	1.64097e-08
2	0	0	0	0	54.7751	-0.0403078	-0.0405171	-0.000444035	3	6.58734e-06	1.7991e-08
2	0	0	0	0	54.8751	-0.045308	-0.0454658	-0.000428651	3	6.54341e-06	1.9489e-08
2	0	0	0	0	54.9751	-0.0503082	-0.0505046	-0.000413702	3	6.50097e-06	2.08939e-08
2	0	0	0	0	55.0751	-0.0553084	-0.0555084	-0.000401514	3	6.4598e-06	2.22874e-08
2	0	0	0	0	55.1751	-0.0603086	-0.0604856	-0.000391645	3	6.41988e-06	2.36889e-08
2	0	0	0	0	55.2751	-0.0653088	-0.065465	-0.000380121	3	6.38103e-06	2.48847e-08
2	0	0	0	0	55.3751	-0.070309	-0.0704922	-0.000369629	3	6.3432e-06	2.60559e-08
2	0	0	0	0	55.4751	-0.0753092	-0.075532	-0.000362774	3	6.30629e-06	2.7401e-08
2	0	0	0	0	55.5751	-0.0803094	-0.0804881	-0.000354136	3	6.27022e-06	2.85037e-08
2	0	0	0	0	55.6751	-0.0853096	-0.0854654	-0.000346728	3	6.23494e-06	2.96332e-08
2	0	0	0	0	55.7751	-0.0903098	-0.0904988	-0.000340437	3	6.20039e-06	3.08092e-08
2	0	0	0	0	55.8751	-0.09531	-0.0954761	-0.000333815	3	6.16651e-06	3.18714e-08
2	0	0	1	0	55.9753	-0.10031	-0.100481	-0.000325951	3	6.13321e-06	3.27519e-08
2	0	0	1	0	56.0753	-0.10531	-0.10551	-0.000321021	3	6.10056e-06	3.3871e-08
2	0	0	1	0	56.1753	-0.110311	-0.110462	-0.000315701	3	6.06847e-06	3.4873e-08
2	0	0	1	0	56.2753	-0.115311	-0.115486	-0.00031147	3	6.03689e-06	3.59705e-08
2	0	0	1	0	56.3753	-0.120311	-0.120407	-0.000307035	3	6.00579e-06	3.69692e-08
2	0	0	1	0	56.4753	-0.125311	-0.125395	-0.000300649	3	5.97513e-06	3.76999e-08
2	0	0	1	0	56.5753	-0.130311	-0.130479	-0.000297532	3	5.9449e-06	3.88217e-08
2	0	0	1	0	56.6753	-0.135312	-0.135447	-0.000294568	3	5.91508e-06	3.98983e-08
2	0	0	1	0	56.7753	-0.140312	-0.140438	-0.000291162	3	5.88563e-06	4.08903e-08
2	0	0	1	0	56.8753	-0.145312	-0.145485	-0.000286094	3	5.85651e-06	4.16225e-08
2	0	0	1	0	56.9753	-0.150312	-0.150488	-0.000283496	3	5.82771e-06	4.26628e-08
2	0	0	1	0	57.0753	-0.155312	-0.155426	-0.000280834	3	5.7992e-06	4.36489e-08
2	0	0	1	0	57.1753	-0.160313	-0.160484	-0.000278997	3	5.77098e-06	4.47745e-08
2	0	0	1	0	57.2753	-0.165313	-0.165458	-0.000275595	3	5.743e-06	4.55994e-08
2	0	0	1	0	57.3753	-0.170313	-0.170497	-0.000272028	3	5.71523e-06	4.638e-08
2	0	0	1	0	57.4753	-0.175313	-0.17543	-0.000272754	3	5.68767e-06	4.78492e-08
2	0	0	1	0	57.5753	-0.180313	-0.180455	-0.000271357	3	5.66027e-06	4.89677e-08
2	0	0	1	0	57.6753	-0.185314	-0.185455	-0.000268766	3	5.63301e-06	4.98441e-08
2	0	0	1	0	57.7753	-0.190314	-0.190503	-0.000268858	3	5.60586e-06	5.12181e-08
2	0	0	1	0	57.8753	-0.195314	-0.195434	-0.0002665	3	5.57877e-06	5.20832e-08
2	1	0	1	1	57.9692	-0.199989	-0.20012	-0.00025677	3	5.55342e-06	5.13849e-08
2	1	0	0	1	58.0647	-0.195214	-0.195327	-0.000132178	3	5.53958e-06	2.58179e-08
2	1	0	0	1	58.1647	-0.190214	-0.190353	-0.000117331	3	5.52735e-06	2.23343e-08
2	1	0	0	1	58.2647	-0.185214	-0.185302	-0.000106856	3	5.51641e-06	1.98006e-08
2	1	0	0	1	58.3647	-0.180213	-0.180348	-9.49896e-05	3	5.50648e-06	1.71312e-08
2	1	0	0	1	58.4647	-0.175213	-0.175337	-8.83568e-05	3	5.49737e-06	1.54923e-08
2	1	0	0	1	58.5647	-0.170213	-0.170349	-8.41334e-05	3	5.48897e-06	1.4332e-08
2	1	0	0	1	58.6647	-0.165213	-0.16533	-7.65944e-05	3	5.4812e-06	1.26633e-08
2	1	0	0	1	58.7647	-0.160213	-0.160355	-7.2166e-05	3	5.47398e-06	1.15722e-08
2	1	0	0	1	58.8647	-0.155212	-0.155315	-6.75663e-05	3	5.46727e-06	1.04941e-08
2	1	0	0	1	58.9647	-0.150212	-0.150335	-6.21188e-05	3	5.46106e-06	9.33865e-09
2	1	0	0	1	59.0647	-0.145212	-0.145324	-5.8888e-05	3	5.45527e-06	8.55786e-09
2	1	0	0	1	59.1647	-0.140212	-0.140333	-5.42583e-05	3	5.44987e-06	7.61424e-09
2	1	0	0	1	59.2647	-0.135212	-0.1353	-4.98353e-05	3	5.44486e-06	6.7427e-09
2	1	0	0	1	59.3647	-0.130211	-0.130263	-4.77633e-05	3	5.4402e-06	6.22179e-09
2	1	0	0	1	59.4647	-0.125211	-0.125312	-4.55694e-05	3	5.4359e-06	5.71041e-09
2	1	0	0	1	59.5647	-0.120211	-0.120331	-4.07931e-05	3	5.43192e-06	4.90866e-09
2	1	0	0	1	59.6647	-0.115211	-0.115335	-3.84508e-05	3	5.42825e-06	4.43474e-09
2	1	0	0	1	59.7647	-0.110211	-0.110314	-3.71366e-05	3	5.42487e-06	4.09668e-09
2	1	0	0	1	59.8647	-0.10521	-0.105335	-3.25263e-05	3	5.42176e-06	3.42617e-09
2	1	0	0	1	59.9647	-0.10021	-0.100278	-3.1251e-05	3	5.41892e-06	3.1338e-09
2	1	0	1	1	60.0649	-0.09521	-0.0953478	-2.68403e-05	3	5.41631e-06	2.55917e-09
2	1	0	1	1	60.1649	-0.0902098	-0.0903483	-2.52506e-05	3	5.41397e-06	2.28134e-09
2	1	0	1	1	60.2649	-0.0852096	-0.0853042	-2.23537e-05	3	5.41186e-06	1.90686e-09
2	1	0	1	1	60.3649	-0.0802094	-0.0803089	-2.04e-05	3	5.40997e-06	1.6383e-09
2	1	0	1	1	60.4649	-0.0752092	-0.0753157	-1.84623e-05	3	5.40831e-06	1.3905e-09
2	1	0	1	1	60.5649	-0.070209	-0.0703088	-1.6143e-05	3	5.40685e-06	1.135e-09
2	1	0	0	1	60.6558	-0.0656338	-0.0658764	-2.07551e-05	3	5.40571e-06	1.36727e-09