File: AutoAnalysis Examples/EC/C003C-10ppb-B_C01.mpt
EC-Lab ASCII FILE
Nb header lines : 59

Cyclic Voltammetry

Run on channel : 1 (SN 22398)
User :
CE vs. WE compliance from -10 V to 10 V
Electrode connection : standard
Ewe ctrl range : min = -1.00 V, max = 1.00 V
Safety Limits :
	Ewe min = -2.00 V
	Ewe max = 2.00 V
	|I| = 50.000 mA
	for t > 10 ms
Acquisition started on : 11/21/2018 11:28:43
Technique started on : 11/21/2018 11:28:43
Saved on :
	File : C003C-10ppb-B_C01.mpr
	Directory : \\ECCOMPUTER\Users\Lab User\Google Drive\Electrochemical Data\EC-Lab\Data\FREDsense\Tim\2018.11.21 - EC comparison to High Throughput\
	Host : 172.16.1.30
Device : SP-50 (SN 0301030103010301)
Address : USB
EC-Lab for windows v11.02 (software)
Internet server v11.02 (firmware)
Command interpretor v11.02 (firmware)
Electrode material : Au/Pd
Initial state :
Electrolyte : NaCl (0.2M)
Comments : Fe(CN)63-/Fe(CN)64- 5.10-3 M
Reference electrode : SCE Saturated Calomel Electrode (0.241 V)
Electrode surface area : 0.001 cm²
Characteristic mass : 0.001 g
Equivalent Weight : 0.000 g/eq.
Density : 0.000 g/cm3
Cycle Definition : Charge/Discharge alternance
Ei (V)              -0.100
vs.                 Ref
dE/dt               50.000
dE/dt unit          mV/s
E1 (V)              0.300
vs.                 Ref
Step percent        50
N                   10
E range min (V)     -1.000
E range max (V)     1.000
I Range             Auto
I Range min         Unset
I Range max         Unset
I Range init        Unset
Bandwidth           5
E2 (V)              -0.200
vs.                 Ref
nc cycles           2
Reverse Scan        1
Ef (V)              0.000
vs.                 Eoc

mode	ox/red	error	control changes	counter inc.	time/s	control/V	Ewe/V	<I>/mA	cycle number	(Q-Qo)/C	P/W
2	1	0	1	0	0.000000000000000E+000	-0.0984851	-0.0987012	-7.55976e-05	1	0.0000000E+000	7.46157e-09
2	1	0	0	0	0.111	-0.0929349	-0.0932069	-6.80639e-06	1	8.95174e-10	6.34403e-10
2	1	0	1	0	0.2265	-0.0871597	-0.0873388	2.85132e-05	1	5.05177e-09	-2.49031e-09
2	1	0	1	0	0.3265	-0.0821595	-0.0823901	3.58968e-05	1	8.71178e-09	-2.95754e-09
2	1	0	1	0	0.4265	-0.0771593	-0.0773683	3.90233e-05	1	1.28496e-08	-3.01917e-09
2	1	0	1	0	0.5265	-0.0721591	-0.0723348	4.16022e-05	1	1.73035e-08	-3.00929e-09
2	1	0	1	0	0.6265	-0.0671589	-0.0674074	4.37113e-05	1	2.20241e-08	-2.94646e-09
2	1	0	1	0	0.7265	-0.0621587	-0.0623697	4.67707e-05	1	2.69846e-08	-2.91707e-09
2	1	0	1	0	0.8265	-0.0571585	-0.0573044	5.03494e-05	1	3.21643e-08	-2.88524e-09
2	1	0	1	0	0.9265	-0.0521583	-0.0523801	5.28577e-05	1	3.75708e-08	-2.76869e-09
2	1	0	1	0	1.0265	-0.0471581	-0.0473413	5.36367e-05	1	4.32013e-08	-2.53923e-09
2	1	0	1	0	1.1265	-0.0421579	-0.042363	5.56733e-05	1	4.90647e-08	-2.35849e-09
2	1	0	1	0	1.2265	-0.0371577	-0.0374016	5.93262e-05	1	5.52168e-08	-2.2189e-09
2	1	0	1	0	1.3265	-0.0321575	-0.032366	6.21401e-05	1	6.16781e-08	-2.01123e-09
2	1	0	1	0	1.4265	-0.0271573	-0.0273909	6.81688e-05	1	6.85348e-08	-1.8672e-09
2	1	0	1	0	1.5265	-0.022157	-0.0223309	7.37206e-05	1	7.59225e-08	-1.64625e-09
2	1	0	1	0	1.6265	-0.0171568	-0.0173589	7.99454e-05	1	8.3951e-08	-1.38776e-09
2	1	0	1	0	1.7265	-0.0121566	-0.0124102	8.99591e-05	1	9.28249e-08	-1.11641e-09
2	1	0	1	0	1.8265	-0.00715643	-0.00733329	0.000103055	1	1.02834e-07	-7.55733e-10
2	1	0	1	0	1.9265	-0.00215623	-0.00233904	0.000119567	1	1.14365e-07	-2.79673e-10
2	1	0	1	0	2.0265	0.00284397	0.00267323	0.000144295	1	1.27994e-07	3.85734e-10
2	1	0	1	0	2.1265	0.00784417	0.0076908	0.000175776	1	1.44348e-07	1.35186e-09
2	1	0	1	0	2.2265	0.0128444	0.0126946	0.000217571	1	1.64321e-07	2.76197e-09
2	1	0	1	0	2.3265	0.0178446	0.0176909	0.000272361	1	1.89116e-07	4.81832e-09
2	1	0	1	0	2.4265	0.0228448	0.0226057	0.000342444	1	2.20159e-07	7.74119e-09
2	1	0	1	0	2.5265	0.027845	0.0276593	0.00043087	1	2.59239e-07	1.19176e-08
2	1	0	1	0	2.6265	0.0328452	0.0326843	0.000544804	1	3.08283e-07	1.78065e-08
2	1	0	1	0	2.7265	0.0378454	0.0376743	0.000675871	1	3.69518e-07	2.5463e-08
2	1	0	1	0	2.8265	0.0428456	0.0426505	0.000830644	1	4.45165e-07	3.54274e-08
2	1	0	1	0	2.9265	0.0478458	0.0476628	0.00100282	1	5.37157e-07	4.77972e-08
2	1	0	1	0	3.0265	0.052846	0.0527736	0.0011897	1	6.47151e-07	6.27847e-08
2	1	0	1	0	3.1265	0.0578462	0.0577053	0.00137411	1	7.75773e-07	7.92937e-08
2	1	0	1	0	3.2265	0.0628464	0.0626922	0.00155352	1	9.22754e-07	9.73932e-08
2	1	0	1	0	3.3265	0.0678466	0.0677235	0.00171642	1	1.08688e-06	1.16242e-07
2	1	0	1	0	3.4265	0.0728468	0.0727241	0.00184908	1	1.2658e-06	1.34472e-07
2	1	0	1	0	3.5265	0.077847	0.0776791	0.00195271	1	1.45653e-06	1.51685e-07
2	1	0	1	0	3.6265	0.0828472	0.0827147	0.0020182	1	1.65565e-06	1.66935e-07
2	1	0	1	0	3.7265	0.0878474	0.0877291	0.00205098	1	1.85972e-06	1.79931e-07
2	1	0	1	0	3.8265	0.0928476	0.0926693	0.00205635	1	2.06566e-06	1.9056e-07
2	1	0	1	0	3.9265	0.0978478	0.0976593	0.00203712	1	2.27084e-06	1.98944e-07
2	1	0	1	0	4.0265	0.102848	0.102684	0.00200111	1	2.47328e-06	2.05483e-07
2	1	0	1	0	4.1265	0.107848	0.107697	0.00195658	1	2.67161e-06	2.10717e-07
2	1	0	1	0	4.2265	0.112848	0.11266	0.00190417	1	2.86494e-06	2.14524e-07
2	1	0	1	0	4.3265	0.117849	0.117665	0.00184739	1	3.05285e-06	2.17373e-07
2	1	0	1	0	4.4265	0.122849	0.122689	0.00179038	1	3.23511e-06	2.1966e-07
2	1	0	1	0	4.5265	0.127849	0.127659	0.00173598	1	3.41177e-06	2.21613e-07
2	1	0	1	0	4.6265	0.132849	0.132678	0.00168381	1	3.58301e-06	2.23406e-07
2	1	0	1	0	4.7265	0.137849	0.137648	0.00163299	1	3.74907e-06	2.24778e-07
2	1	0	1	0	4.8265	0.14285	0.142666	0.00158595	1	3.91031e-06	2.26261e-07
2	1	0	0	0	4.9267	0.14785	0.147698	0.0015443	1	4.06729e-06	2.2809e-07
2	1	0	0	0	5.0267	0.15285	0.152707	0.00150549	1	4.2198e-06	2.29899e-07
2	1	0	0	0	5.1267	0.15785	0.157693	0.00146474	1	4.36847e-06	2.3098e-07
2	1	0	0	0	5.2267	0.16285	0.162684	0.00142881	1	4.5135e-06	2.32445e-07
2	1	0	0	0	5.3267	0.167851	0.167732	0.00139686	1	4.65521e-06	2.34299e-07
2	1	0	0	0	5.4267	0.172851	0.17272	0.00136813	1	4.79378e-06	2.36304e-07
2	1	0	0	0	5.5267	0.177851	0.17767	0.00133852	1	4.92943e-06	2.37816e-07
2	1	0	0	0	5.6267	0.182851	0.182689	0.0013131	1	5.06237e-06	2.39889e-07
2	1	0	0	0	5.7267	0.187851	0.187705	0.00128875	1	5.1928e-06	2.41905e-07
2	1	0	0	0	5.8267	0.192852	0.192678	0.00126695	1	5.32089e-06	2.44115e-07
2	1	0	0	0	5.9267	0.197852	0.19765	0.00124647	1	5.44684e-06	2.46364e-07
2	1	0	0	0	6.0267	0.202852	0.202672	0.00122648	1	5.57083e-06	2.48572e-07
2	1	0	0	0	6.1267	0.207852	0.207647	0.00120989	1	5.69301e-06	2.5123e-07
2	1	0	0	0	6.2267	0.212852	0.212692	0.001194	1	5.81348e-06	2.53954e-07
2	1	0	0	0	6.3267	0.217853	0.217692	0.00117787	1	5.93234e-06	2.56413e-07
2	1	0	0	0	6.4267	0.222853	0.22267	0.00116291	1	6.04973e-06	2.58945e-07
2	1	0	0	0	6.5267	0.227853	0.227706	0.00115023	1	6.1657e-06	2.61915e-07
2	1	0	0	0	6.6267	0.232853	0.232693	0.00113572	1	6.28035e-06	2.64274e-07
2	1	0	0	0	6.7267	0.237853	0.237691	0.00112582	1	6.39371e-06	2.67598e-07
2	1	0	0	0	6.8267	0.242854	0.242707	0.00111249	1	6.50592e-06	2.70009e-07
2	1	0	0	0	6.9267	0.247854	0.24771	0.00110146	1	6.617e-06	2.72844e-07
2	1	0	0	0	7.0267	0.252854	0.252689	0.00109221	1	6.72704e-06	2.75988e-07
2	1	0	0	0	7.1267	0.257854	0.257736	0.0010833	1	6.83616e-06	2.79204e-07
2	1	0	0	0	7.2267	0.262854	0.262642	0.00107264	1	6.94433e-06	2.81722e-07
2	1	0	0	0	7.3267	0.267855	0.267756	0.00106632	1	7.05168e-06	2.85513e-07
2	1	0	0	0	7.4267	0.272855	0.272725	0.00105966	1	7.15827e-06	2.88997e-07
2	1	0	0	0	7.5267	0.277855	0.277696	0.00105281	1	7.26422e-06	2.92361e-07
2	1	0	0	0	7.6267	0.282855	0.282669	0.00104332	1	7.36952e-06	2.94914e-07
2	1	0	0	0	7.7267	0.287855	0.287676	0.00104107	1	7.47411e-06	2.9949e-07
2	1	0	0	0	7.8267	0.292856	0.292757	0.00103564	1	7.57819e-06	3.0319e-07
2	1	0	0	0	7.9267	0.297856	0.297691	0.00102895	1	7.68176e-06	3.06308e-07
2	0	0	1	0	8.0153	0.297706	0.297528	0.000909648	1	7.76821e-06	2.70645e-07
2	0	0	1	0	8.1153	0.292706	0.292503	0.000865769	1	7.8566e-06	2.5324e-07
2	0	0	1	0	8.2153	0.287705	0.287517	0.000836793	1	7.94141e-06	2.40592e-07
2	0	0	1	0	8.3153	0.282705	0.282525	0.000810937	1	8.02349e-06	2.2911e-07
2	0	0	1	0	8.4153	0.277705	0.277486	0.000790462	1	8.10332e-06	2.19342e-07
2	0	0	1	0	8.5153	0.272705	0.272516	0.000771613	1	8.18116e-06	2.10277e-07
2	0	0	1	0	8.6153	0.267705	0.267558	0.000754981	1	8.25726e-06	2.02001e-07
2	0	0	1	0	8.7153	0.262704	0.262498	0.000740524	1	8.3318e-06	1.94386e-07
2	0	0	1	0	8.8153	0.257704	0.257486	0.000727725	1	8.40494e-06	1.87379e-07
2	0	0	1	0	8.9153	0.252704	0.252518	0.000714965	1	8.47674e-06	1.80541e-07
2	0	0	1	0	9.0153	0.247704	0.247507	0.000705716	1	8.54746e-06	1.74669e-07
2	0	0	1	0	9.1153	0.242704	0.24251	0.000700141	1	8.61755e-06	1.69792e-07
2	0	0	1	0	9.2153	0.237703	0.237528	0.000683549	1	8.68651e-06	1.62362e-07
2	0	0	1	0	9.3153	0.232703	0.232438	0.000670789	1	8.75392e-06	1.55917e-07
2	0	0	1	0	9.4153	0.227703	0.227499	0.000661185	1	8.82023e-06	1.50419e-07
2	0	0	1	0	9.5153	0.222703	0.222459	0.000651249	1	8.88554e-06	1.44876e-07
2	0	0	1	0	9.6153	0.217703	0.217481	0.000642525	1	8.94993e-06	1.39737e-07
2	0	0	1	0	9.7153	0.212702	0.212516	0.000632437	1	9.0134e-06	1.34403e-07
2	0	0	1	0	9.8153	0.207702	0.207471	0.000622434	1	9.07595e-06	1.29137e-07
2	0	0	1	0	9.9153	0.202702	0.202446	0.000615513	1	9.13763e-06	1.24608e-07
2	0	0	1	0	10.0153	0.197702	0.19748	0.000605658	1	9.19848e-06	1.19605e-07
2	0	0	1	0	10.1153	0.192702	0.1925	0.000596367	1	9.25837e-06	1.14801e-07
2	0	0	1	0	10.2153	0.187701	0.187503	0.000587717	1	9.31736e-06	1.10199e-07
2	0	0	1	0	10.3153	0.182701	0.182531	0.000578193	1	9.37545e-06	1.05538e-07
2	0	0	1	0	10.4153	0.177701	0.177536	0.000568933	1	9.43263e-06	1.01006e-07
2	0	0	1	0	10.5153	0.172701	0.172492	0.000559207	1	9.48888e-06	9.64591e-08
2	0	0	1	0	10.6153	0.167701	0.167496	0.000548883	1	9.54415e-06	9.19357e-08
2	0	0	1	0	10.7153	0.1627	0.162469	0.000539721	1	9.59836e-06	8.76878e-08
2	0	0	1	0	10.8153	0.1577	0.157546	0.000529843	1	9.65157e-06	8.34745e-08
2	0	0	1	0	10.9153	0.1527	0.152505	0.000515394	1	9.70375e-06	7.86e-08
2	0	0	1	0	11.0153	0.1477	0.147504	0.000506087	1	9.75468e-06	7.46499e-08
2	0	0	0	0	11.1155	0.1427	0.142435	0.000491731	1	9.80448e-06	7.00396e-08
2	0	0	0	0	11.2155	0.137699	0.137496	0.000478146	1	9.85279e-06	6.57429e-08
2	0	0	0	0	11.3155	0.132699	0.132525	0.000461425	1	9.89962e-06	6.11502e-08
2	0	0	0	0	11.4155	0.127699	0.127495	0.000443535	1	9.94475e-06	5.65487e-08
2	0	0	0	0	11.5155	0.122699	0.122575	0.000424002	1	9.98797e-06	5.19722e-08
2	0	0	0	0	11.6155	0.117699	0.117539	0.000401226	1	1.0029e-05	4.71596e-08
2	0	0	0	0	11.7155	0.112698	0.112529	0.000371572	1	1.00675e-05	4.18125e-08
2	0	0	0	0	11.8155	0.107698	0.107458	0.000339228	1	1.01029e-05	3.64527e-08
2	0	0	0	0	11.9155	0.102698	0.102497	0.000299954	1	1.01347e-05	3.07442e-08
2	0	0	0	0	12.0155	0.0976978	0.0974865	0.000250648	1	1.01621e-05	2.44348e-08
2	0	0	0	0	12.1155	0.0926976	0.0925124	0.000192189	1	1.01841e-05	1.77799e-08
2	0	0	0	0	12.2155	0.0876974	0.0874662	0.000120829	1	1.01996e-05	1.05684e-08
2	0	0	0	0	12.3155	0.0826972	0.0824889	3.36693e-05	1	1.02071e-05	2.77735e-09
2	0	0	0	0	12.4155	0.077697	0.0774798	-7.2454e-05	1	1.02051e-05	-5.61372e-09
2	0	0	0	0	12.5155	0.0726968	0.0725407	-0.000196186	1	1.01914e-05	-1.42315e-08
2	0	0	0	0	12.6155	0.0676966	0.0675051	-0.000343384	1	1.01643e-05	-2.31802e-08
2	0	0	0	0	12.7155	0.0626964	0.0624918	-0.000509021	1	1.01216e-05	-3.18096e-08
2	0	0	0	0	12.8155	0.0576962	0.0574392	-0.000687409	1	1.00616e-05	-3.94842e-08
2	0	0	0	0	12.9155	0.052696	0.0525192	-0.000874613	1	9.98321e-06	-4.5934e-08
2	0	0	0	0	13.0155	0.0476958	0.0474539	-0.00106379	1	9.88591e-06	-5.04808e-08
2	0	0	0	0	13.1155	0.0426956	0.0425	-0.00123181	1	9.77067e-06	-5.23521e-08
2	0	0	0	0	13.2155	0.0376954	0.0374474	-0.00137774	1	9.63962e-06	-5.15929e-08
2	0	0	0	0	13.3155	0.0326952	0.0325465	-0.00148768	1	9.49575e-06	-4.84188e-08
2	0	0	0	0	13.4155	0.027695	0.0274579	-0.00155272	1	9.34304e-06	-4.26345e-08
2	0	0	0	0	13.5155	0.0226948	0.0224371	-0.00158435	1	9.18554e-06	-3.55484e-08
2	0	0	0	0	13.6155	0.0176946	0.0174545	-0.00157443	1	9.02715e-06	-2.7481e-08
2	0	0	0	0	13.7155	0.0126944	0.0125038	-0.00153854	1	8.87114e-06	-1.92376e-08
2	0	0	0	0	13.8155	0.00769417	0.00749997	-0.0014789	1	8.71988e-06	-1.10917e-08
2	0	0	0	0	13.9155	0.00269396	0.00248134	-0.00141123	1	8.57495e-06	-3.50175e-09
2	0	0	0	0	14.0155	-0.00230624	-0.00259347	-0.00133851	1	8.43711e-06	3.47138e-09
2	0	0	0	0	14.1155	-0.00730644	-0.00758136	-0.00126554	1	8.30671e-06	9.59454e-09
2	0	0	0	0	14.2155	-0.0123066	-0.0125279	-0.00119336	1	8.18365e-06	1.49503e-08
2	0	0	0	0	14.3155	-0.0173068	-0.0175688	-0.00112484	1	8.06752e-06	1.97621e-08
2	0	0	0	0	14.4155	-0.0223071	-0.0225556	-0.00106325	1	7.95788e-06	2.39823e-08
2	0	0	0	0	14.5155	-0.0273073	-0.0275636	-0.00100616	1	7.85419e-06	2.77333e-08
2	0	0	0	0	14.6155	-0.0323075	-0.0325494	-0.000955952	1	7.75591e-06	3.11157e-08
2	0	0	0	0	14.7155	-0.0373077	-0.0375331	-0.000910379	1	7.66253e-06	3.41693e-08
2	0	0	0	0	14.8155	-0.0423079	-0.0425549	-0.00086603	1	7.57355e-06	3.68538e-08
2	0	0	0	0	14.9155	-0.0473081	-0.0476064	-0.000828676	1	7.4886e-06	3.94503e-08
2	0	0	0	0	15.0155	-0.0523083	-0.0526017	-0.00079718	1	7.40725e-06	4.1933e-08
2	0	0	0	0	15.1155	-0.0573085	-0.0576002	-0.000762376	1	7.32918e-06	4.3913e-08
2	0	0	0	0	15.2155	-0.0623087	-0.0625764	-0.00073449	1	7.25412e-06	4.59618e-08
2	0	0	0	0	15.3155	-0.0673089	-0.0675441	-0.000709305	1	7.18179e-06	4.79094e-08
2	0	0	0	0	15.4155	-0.0723091	-0.0725384	-0.000683837	1	7.11197e-06	4.96044e-08
2	0	0	0	0	15.5155	-0.0773093	-0.0776365	-0.000662058	1	7.04445e-06	5.13998e-08
2	0	0	0	0	15.6155	-0.0823095	-0.082512	-0.000642336	1	6.97906e-06	5.30004e-08
2	0	0	0	0	15.7155	-0.0873097	-0.087537	-0.000622195	1	6.91565e-06	5.44651e-08
2	0	0	0	0	15.8155	-0.0923099	-0.0925493	-0.000605695	1	6.85405e-06	5.60567e-08
2	0	0	0	0	15.9155	-0.0973101	-0.0975711	-0.0005883	1	6.79416e-06	5.74011e-08
2	0	0	1	0	16.0157	-0.10231	-0.102491	-0.000573708	1	6.73572e-06	5.88e-08
2	0	0	1	0	16.1157	-0.107311	-0.107567	-0.000560469	1	6.67886e-06	6.02879e-08
2	0	0	1	0	16.2157	-0.112311	-0.112563	-0.000546613	1	6.62336e-06	6.15286e-08
2	0	0	1	0	16.3157	-0.117311	-0.117574	-0.000534501	1	6.56914e-06	6.28431e-08
2	0	0	1	0	16.4157	-0.122311	-0.122537	-0.000523139	1	6.51612e-06	6.4104e-08
2	0	0	1	0	16.5157	-0.127311	-0.127575	-0.000511919	1	6.46425e-06	6.5308e-08
2	0	0	1	0	16.6157	-0.132312	-0.132589	-0.000500042	1	6.41343e-06	6.63001e-08
2	0	0	1	0	16.7157	-0.137312	-0.137573	-0.000490578	1	6.36363e-06	6.74901e-08
2	0	0	1	0	16.8157	-0.142312	-0.142581	-0.000482293	1	6.31478e-06	6.87658e-08
2	0	0	1	0	16.9157	-0.147312	-0.147561	-0.000473908	1	6.26684e-06	6.99305e-08
2	0	0	1	0	17.0157	-0.152312	-0.152558	-0.00046509	1	6.21977e-06	7.09531e-08
2	0	0	1	0	17.1157	-0.157313	-0.157548	-0.000457108	1	6.17347e-06	7.20163e-08
2	0	0	1	0	17.2157	-0.162313	-0.162513	-0.000448967	1	6.12797e-06	7.2963e-08
2	0	0	1	0	17.3157	-0.167313	-0.167567	-0.000444084	1	6.08318e-06	7.44138e-08
2	0	0	1	0	17.4157	-0.172313	-0.172515	-0.000436238	1	6.03906e-06	7.52574e-08
2	0	0	1	0	17.5157	-0.177313	-0.177547	-0.000429165	1	5.99556e-06	7.6197e-08
2	0	0	1	0	17.6157	-0.182314	-0.182539	-0.000424347	1	5.95264e-06	7.74598e-08
2	0	0	1	0	17.7157	-0.187314	-0.18756	-0.000420017	1	5.91027e-06	7.87783e-08
2	0	0	1	0	17.8157	-0.192314	-0.192529	-0.000414879	1	5.86839e-06	7.9876e-08
2	0	0	1	0	17.9157	-0.197314	-0.197564	-0.000410788	1	5.82697e-06	8.11569e-08
2	1	0	0	1	18.0051	-0.198214	-0.198453	-0.000305645	1	5.79377e-06	6.0656e-08
2	1	0	0	1	18.1051	-0.193214	-0.193473	-0.000281894	1	5.76491e-06	5.45389e-08
2	1	0	0	1	18.2051	-0.188214	-0.188415	-0.000264092	1	5.738e-06	4.9759e-08
2	1	0	0	1	18.3051	-0.183214	-0.183442	-0.00025264	1	5.71252e-06	4.63449e-08
2	1	0	0	1	18.4051	-0.178213	-0.178395	-0.000240585	1	5.68823e-06	4.29191e-08
2	1	0	0	1	18.5051	-0.173213	-0.173416	-0.000231304	1	5.66498e-06	4.01118e-08
2	1	0	0	1	18.6051	-0.168213	-0.168474	-0.000222523	1	5.64267e-06	3.74895e-08
2	1	0	0	1	18.7051	-0.163213	-0.1634	-0.000213273	1	5.62122e-06	3.48487e-08
2	1	0	0	1	18.8051	-0.158213	-0.158447	-0.000205508	1	5.60057e-06	3.2562e-08
2	1	0	0	1	18.9051	-0.153212	-0.153426	-0.000199295	1	5.58066e-06	3.05771e-08
2	1	0	0	1	19.0051	-0.148212	-0.148388	-0.000191649	1	5.56143e-06	2.84384e-08
2	1	0	0	1	19.1051	-0.143212	-0.143423	-0.000185758	1	5.54286e-06	2.66418e-08
2	1	0	0	1	19.2051	-0.138212	-0.138406	-0.000179785	1	5.5249e-06	2.48834e-08
2	1	0	0	1	19.3051	-0.133212	-0.133417	-0.000172958	1	5.50755e-06	2.30756e-08
2	1	0	0	1	19.4051	-0.128211	-0.128419	-0.000167352	1	5.49075e-06	2.14911e-08
2	1	0	0	1	19.5051	-0.123211	-0.123419	-0.00016272	1	5.47449e-06	2.00828e-08
2	1	0	0	1	19.6051	-0.118211	-0.118439	-0.000158016	1	5.45875e-06	1.87152e-08
2	1	0	0	1	19.7051	-0.113211	-0.113395	-0.0001527	1	5.4435e-06	1.73153e-08
2	1	0	0	1	19.8051	-0.108211	-0.108446	-0.000147471	1	5.42873e-06	1.59926e-08
2	1	0	0	1	19.9051	-0.10321	-0.103412	-0.000142735	1	5.4144e-06	1.47606e-08
2	1	0	1	1	20.0053	-0.0982101	-0.0983874	-0.000140057	2	5.40047e-06	1.37799e-08
2	1	0	1	1	20.1053	-0.09321	-0.0934292	-0.000135641	2	5.38701e-06	1.26729e-08
2	1	0	1	1	20.2053	-0.0882097	-0.0884381	-0.000131489	2	5.37396e-06	1.16286e-08
2	1	0	1	1	20.3053	-0.0832095	-0.0834078	-0.000127979	2	5.36132e-06	1.06744e-08
2	1	0	1	1	20.4053	-0.0782093	-0.078473	-0.000123293	2	5.34906e-06	9.67514e-09
2	1	0	1	1	20.5053	-0.0732091	-0.0734066	-0.000119924	2	5.33721e-06	8.80322e-09
2	1	0	1	1	20.6053	-0.0682089	-0.0684177	-0.000116374	2	5.32575e-06	7.96201e-09
2	1	0	1	1	20.7053	-0.0632087	-0.0634192	-0.000112355	2	5.31468e-06	7.12547e-09
2	1	0	1	1	20.8053	-0.0582085	-0.0584514	-0.000107897	2	5.30401e-06	6.30672e-09
2	1	0	1	1	20.9053	-0.0532083	-0.053454	-0.000104454	2	5.29376e-06	5.58349e-09
2	1	0	1	1	21.0053	-0.0482081	-0.0484089	-9.87839e-05	2	5.28398e-06	4.78202e-09
2	1	0	1	1	21.1053	-0.0432079	-0.0433796	-9.47317e-05	2	5.27465e-06	4.10943e-09
2	1	0	1	1	21.2053	-0.0382077	-0.0384087	-8.81254e-05	2	5.26583e-06	3.38479e-09
2	1	0	1	1	21.3053	-0.0332075	-0.0334495	-8.30382e-05	2	5.25757e-06	2.77758e-09
2	1	0	1	1	21.4053	-0.0282073	-0.0284192	-7.46531e-05	2	5.24997e-06	2.12158e-09
2	1	0	1	1	21.5053	-0.0232071	-0.0234228	-6.64005e-05	2	5.24314e-06	1.55529e-09
2	1	0	1	1	21.6053	-0.0182069	-0.0184286	-5.75632e-05	2	5.23722e-06	1.06081e-09
2	1	0	1	1	21.7053	-0.0132067	-0.0133707	-4.4204e-05	2	5.23241e-06	5.91038e-10
2	1	0	1	1	21.8053	-0.00820648	-0.00844324	-2.87904e-05	2	5.22899e-06	2.43084e-10
2	1	0	1	1	21.9053	-0.00320627	-0.00345429	-7.9646e-06	2	5.22732e-06	2.75121e-11
2	1	0	1	1	22.0053	0.00179393	0.00163537	1.52405e-05	2	5.22796e-06	2.49239e-11
2	1	0	1	1	22.1053	0.00679413	0.00660099	4.95439e-05	2	5.23143e-06	3.27039e-10
2	1	0	1	1	22.2053	0.0117943	0.0116101	9.12486e-05	2	5.2386e-06	1.0594e-09
2	1	0	1	1	22.3053	0.0167945	0.0166563	0.000143355	2	5.25049e-06	2.38777e-09
2	1	0	1	1	22.4053	0.0217947	0.0216473	0.000210164	2	5.26837e-06	4.54949e-09
2	1	0	1	1	22.5053	0.0267949	0.0266384	0.000292861	2	5.29375e-06	7.80136e-09
2	1	0	1	1	22.6053	0.0317951	0.0315828	0.00039465	2	5.32835e-06	1.24642e-08
2	1	0	1	1	22.7053	0.0367953	0.0366099	0.000516008	2	5.37404e-06	1.8891e-08
2	1	0	1	1	22.8053	0.0417955	0.0416116	0.000655064	2	5.43278e-06	2.72583e-08
2	1	0	1	1	22.9053	0.0467957	0.0465942	0.000811226	2	5.50633e-06	3.77984e-08
2	1	0	1	1	23.0053	0.0517959	0.0516425	0.000982897	2	5.59621e-06	5.07592e-08
2	1	0	1	1	23.1053	0.0567961	0.0566314	0.00115524	2	5.70332e-06	6.54226e-08
2	1	0	1	1	23.2053	0.0617963	0.0616638	0.00132625	2	5.8277e-06	8.17819e-08
2	1	0	1	1	23.3053	0.0667965	0.0666263	0.00148566	2	5.9687e-06	9.89843e-08
2	1	0	1	1	23.4053	0.0717967	0.0716067	0.00162441	2	6.12463e-06	1.16319e-07
2	1	0	1	1	23.5053	0.0767969	0.0766423	0.00173675	2	6.29314e-06	1.33108e-07
2	1	0	1	1	23.6053	0.0817971	0.0816186	0.00181696	2	6.47137e-06	1.48298e-07
2	1	0	1	1	23.7053	0.0867973	0.0866096	0.0018667	2	6.65617e-06	1.61674e-07
2	1	0	1	1	23.8053	0.0917976	0.0916442	0.00189031	2	6.84459e-06	1.73236e-07
2	1	0	1	1	23.9053	0.0967978	0.096649	0.00188788	2	7.03386e-06	1.82462e-07
2	1	0	1	1	24.0053	0.101798	0.10159	0.00186473	2	7.2218e-06	1.89438e-07
2	1	0	1	1	24.1053	0.106798	0.106623	0.00182716	2	7.40674e-06	1.94817e-07
2	1	0	1	1	24.2053	0.111798	0.111605	0.00178186	2	7.58751e-06	1.98865e-07
2	1	0	1	1	24.3053	0.116799	0.11661	0.0017311	2	7.76339e-06	2.01863e-07
2	1	0	1	1	24.4053	0.121799	0.121573	0.00167636	2	7.934e-06	2.03799e-07
2	1	0	1	1	24.5053	0.126799	0.126618	0.00162252	2	8.09918e-06	2.05439e-07
2	1	0	1	1	24.6053	0.131799	0.131653	0.00157044	2	8.25903e-06	2.06753e-07
2	1	0	1	1	24.7053	0.136799	0.13667	0.00151885	2	8.4137e-06	2.07581e-07
2	1	0	1	1	24.8053	0.1418	0.14161	0.00147079	2	8.56345e-06	2.08279e-07
2	1	0	1	1	24.9053	0.1468	0.146608	0.00142625	2	8.70856e-06	2.09101e-07
2	1	0	0	1	25.0055	0.1518	0.151654	0.00138486	2	8.8496e-06	2.10019e-07
2	1	0	0	1	25.1055	0.1568	0.156635	0.00134779	2	8.9864e-06	2.11111e-07
2	1	0	0	1	25.2055	0.1618	0.161642	0.00131101	2	9.11945e-06	2.11914e-07
2	1	0	0	1	25.3055	0.166801	0.166661	0.00127576	2	9.24904e-06	2.12619e-07
2	1	0	0	1	25.4055	0.171801	0.171602	0.00124623	2	9.3754e-06	2.13855e-07
2	1	0	0	1	25.5055	0.176801	0.176607	0.00121777	2	9.49876e-06	2.15067e-07
2	1	0	0	1	25.6055	0.181801	0.18164	0.00118996	2	9.61934e-06	2.16145e-07
2	1	0	0	1	25.7055	0.186801	0.186626	0.00116555	2	9.73731e-06	2.17522e-07
2	1	0	0	1	25.8055	0.191802	0.191646	0.00114391	2	9.85287e-06	2.19225e-07
2	1	0	0	1	25.9055	0.196802	0.196623	0.00112181	2	9.96621e-06	2.20573e-07
2	1	0	0	1	26.0055	0.201802	0.201575	0.00110231	2	1.00775e-05	2.22197e-07
2	1	0	0	1	26.1055	0.206802	0.206615	0.00108246	2	1.01869e-05	2.23652e-07
2	1	0	0	1	26.2055	0.211802	0.211604	0.00106658	2	1.02945e-05	2.25693e-07
2	1	0	0	1	26.3055	0.216803	0.21665	0.00105096	2	1.04005e-05	2.2769e-07
2	1	0	0	1	26.4055	0.221803	0.221666	0.00103496	2	1.05049e-05	2.29416e-07
2	1	0	0	1	26.5055	0.226803	0.22663	0.00101946	2	1.06079e-05	2.31041e-07
2	1	0	0	1	26.6055	0.231803	0.23166	0.00100776	2	1.07094e-05	2.33458e-07
2	1	0	0	1	26.7055	0.236803	0.236635	0.000994882	2	1.08096e-05	2.35424e-07
2	1	0	0	1	26.8055	0.241804	0.241598	0.00098103	2	1.09086e-05	2.37015e-07
2	1	0	0	1	26.9055	0.246804	0.246644	0.000970765	2	1.10064e-05	2.39433e-07
2	1	0	0	1	27.0055	0.251804	0.251609	0.000958023	2	1.11032e-05	2.41048e-07
2	1	0	0	1	27.1055	0.256804	0.256678	0.000950823	2	1.11989e-05	2.44055e-07
2	1	0	0	1	27.2055	0.261804	0.261629	0.000940429	2	1.12937e-05	2.46043e-07
2	1	0	0	1	27.3055	0.266805	0.266623	0.000933312	2	1.13876e-05	2.48843e-07
2	1	0	0	1	27.4055	0.271805	0.27166	0.000926581	2	1.14807e-05	2.51715e-07
2	1	0	0	1	27.5055	0.276805	0.276615	0.000919814	2	1.15732e-05	2.54434e-07
2	1	0	0	1	27.6055	0.281805	0.281659	0.000912331	2	1.1665e-05	2.56966e-07
2	1	0	0	1	27.7055	0.286805	0.286597	0.000907489	2	1.17563e-05	2.60084e-07
2	1	0	0	1	27.8055	0.291806	0.291641	0.000903845	2	1.18471e-05	2.63598e-07
2	1	0	0	1	27.9055	0.296806	0.296603	0.000899806	2	1.19375e-05	2.66885e-07
2	0	0	0	1	27.9951	0.298706	0.298504	0.000795534	2	1.20157e-05	2.3747e-07
2	0	0	0	1	28.0951	0.293706	0.29348	0.000754977	2	1.20928e-05	2.21571e-07
2	0	0	0	1	28.1951	0.288705	0.288489	0.000729615	2	1.21669e-05	2.10486e-07
2	0	0	0	1	28.2951	0.283705	0.283469	0.000711144	2	1.22387e-05	2.01588e-07
2	0	0	0	1	28.3951	0.278705	0.278464	0.000692848	2	1.23086e-05	1.92933e-07
2	0	0	0	1	28.4951	0.273705	0.273504	0.000677492	2	1.23769e-05	1.85297e-07
2	0	0	0	1	28.5951	0.268705	0.268541	0.00066245	2	1.24437e-05	1.77895e-07
2	0	0	0	1	28.6951	0.263704	0.263457	0.000651519	2	1.25093e-05	1.71648e-07
2	0	0	0	1	28.7951	0.258704	0.258517	0.000639218	2	1.25737e-05	1.65249e-07
2	0	0	0	1	28.8951	0.253704	0.253501	0.000627892	2	1.26369e-05	1.59171e-07
2	0	0	0	1	28.9951	0.248704	0.248458	0.000618497	2	1.26992e-05	1.5367e-07
2	0	0	0	1	29.0951	0.243704	0.243466	0.000608338	2	1.27604e-05	1.48109e-07
2	0	0	0	1	29.1951	0.238703	0.238499	0.000600197	2	1.28207e-05	1.43146e-07
2	0	0	0	1	29.2951	0.233703	0.233506	0.000590128	2	1.28801e-05	1.37798e-07
2	0	0	0	1	29.3951	0.228703	0.228526	0.000582868	2	1.29387e-05	1.33201e-07
2	0	0	0	1	29.4951	0.223703	0.223489	0.00057455	2	1.29963e-05	1.28405e-07
2	0	0	0	1	29.5951	0.218703	0.218495	0.000566557	2	1.30532e-05	1.2379e-07
2	0	0	0	1	29.6951	0.213702	0.213512	0.000557893	2	1.31092e-05	1.19117e-07
2	0	0	0	1	29.7951	0.208702	0.208528	0.000548938	2	1.31644e-05	1.14469e-07
2	0	0	0	1	29.8951	0.203702	0.203499	0.000539809	2	1.32188e-05	1.09851e-07
2	0	0	0	1	29.9951	0.198702	0.198517	0.000534213	2	1.32725e-05	1.06051e-07
2	0	0	0	1	30.0951	0.193702	0.193502	0.000526573	2	1.33252e-05	1.01893e-07
2	0	0	0	1	30.1951	0.188701	0.188505	0.000516208	2	1.33772e-05	9.73076e-08
2	0	0	0	1	30.2951	0.183701	0.183468	0.000509326	2	1.34284e-05	9.3445e-08
2	0	0	0	1	30.3951	0.178701	0.178468	0.000500835	2	1.34787e-05	8.93832e-08
2	0	0	0	1	30.4951	0.173701	0.173504	0.000491989	2	1.35282e-05	8.53619e-08
2	0	0	0	1	30.5951	0.168701	0.168515	0.000482131	2	1.35767e-05	8.12462e-08
2	0	0	0	1	30.6951	0.1637	0.163474	0.000472356	2	1.36244e-05	7.72178e-08
2	0	0	0	1	30.7951	0.1587	0.158454	0.000463502	2	1.36711e-05	7.34439e-08
2	0	0	0	1	30.8951	0.1537	0.153474	0.00045319	2	1.37169e-05	6.95528e-08
2	0	0	0	1	30.9951	0.1487	0.148481	0.000443381	2	1.37615e-05	6.58335e-08
2	0	0	1	1	31.0953	0.1437	0.143485	0.000429985	2	1.38051e-05	6.16965e-08
2	0	0	1	1	31.1953	0.138699	0.138459	0.00041853	2	1.38474e-05	5.79493e-08
2	0	0	1	1	31.2953	0.133699	0.133493	0.000403583	2	1.38883e-05	5.38753e-08
2	0	0	1	1	31.3953	0.128699	0.128495	0.000386901	2	1.39277e-05	4.97149e-08
2	0	0	1	1	31.4953	0.123699	0.123449	0.000368834	2	1.39653e-05	4.55322e-08
2	0	0	1	1	31.5953	0.118699	0.118417	0.000347341	2	1.4001e-05	4.11309e-08
2	0	0	1	1	31.6953	0.113698	0.113454	0.000322551	2	1.40343e-05	3.65947e-08
2	0	0	1	1	31.7953	0.108698	0.108464	0.000292001	2	1.40649e-05	3.16717e-08
2	0	0	1	1	31.8953	0.103698	0.103448	0.000257191	2	1.40922e-05	2.66058e-08
2	0	0	1	1	31.9953	0.0986978	0.0984586	0.000212178	2	1.41155e-05	2.08907e-08
2	0	0	1	1	32.0953	0.0936976	0.0934898	0.000159147	2	1.4134e-05	1.48786e-08
2	0	0	1	1	32.1953	0.0886974	0.0884691	9.35696e-05	2	1.41466e-05	8.27802e-09
2	0	0	1	1	32.2953	0.0836972	0.0834886	1.48042e-05	2	1.4152e-05	1.23599e-09
2	0	0	1	1	32.3953	0.078697	0.0785421	-8.17487e-05	2	1.41486e-05	-6.42072e-09
2	0	0	1	1	32.4953	0.0736968	0.0735075	-0.000195821	2	1.41348e-05	-1.43943e-08
2	0	0	1	1	32.5953	0.0686966	0.0685133	-0.000329588	2	1.41085e-05	-2.25812e-08
2	0	0	1	1	32.6953	0.0636964	0.0635148	-0.000483129	2	1.40679e-05	-3.06858e-08
2	0	0	1	1	32.7953	0.0586962	0.0585004	-0.000651948	2	1.4011e-05	-3.81393e-08
2	0	0	1	1	32.8953	0.053696	0.0535274	-0.000833006	2	1.39366e-05	-4.45886e-08
2	0	0	1	1	32.9953	0.0486958	0.0484886	-0.00102023	2	1.38438e-05	-4.94694e-08
2	0	0	1	1	33.0953	0.0436956	0.0434467	-0.00119531	2	1.37328e-05	-5.19323e-08
2	0	0	1	1	33.1953	0.0386954	0.038445	-0.00135039	2	1.36053e-05	-5.19156e-08
2	0	0	1	1	33.2953	0.0336952	0.0335027	-0.00147636	2	1.34635e-05	-4.94622e-08
2	0	0	1	1	33.3953	0.028695	0.0284586	-0.00156452	2	1.3311e-05	-4.4524e-08
2	0	0	1	1	33.4953	0.0236948	0.0234707	-0.00161459	2	1.31517e-05	-3.78956e-08
2	0	0	1	1	33.5953	0.0186946	0.0184807	-0.00162169	2	1.29895e-05	-2.997e-08
2	0	0	1	1	33.6953	0.0136944	0.0135056	-0.00160148	2	1.28279e-05	-2.16289e-08
2	0	0	1	1	33.7953	0.00869421	0.00843076	-0.00155574	2	1.26698e-05	-1.31161e-08
2	0	0	1	1	33.8953	0.003694	0.00351815	-0.00149618	2	1.25171e-05	-5.26377e-09
2	0	0	1	1	33.9953	-0.0013062	-0.00156091	-0.0014265	2	1.2371e-05	2.22664e-09
2	0	0	1	1	34.0953	-0.0063064	-0.00653502	-0.00135214	2	1.2232e-05	8.83625e-09
2	0	0	1	1	34.1953	-0.0113066	-0.0115738	-0.00128075	2	1.21003e-05	1.48231e-08
2	0	0	1	1	34.2953	-0.0163068	-0.0165341	-0.00121233	2	1.19756e-05	2.00448e-08
2	0	0	1	1	34.3953	-0.021307	-0.0215633	-0.00114683	2	1.18575e-05	2.47295e-08
2	0	0	1	1	34.4953	-0.0263072	-0.02653	-0.00108922	2	1.17457e-05	2.88971e-08
2	0	0	1	1	34.5953	-0.0313074	-0.0315529	-0.00103585	2	1.16394e-05	3.2684e-08
2	0	0	1	1	34.6953	-0.0363076	-0.036527	-0.000984533	2	1.15383e-05	3.5962e-08
2	0	0	1	1	34.7953	-0.0413078	-0.0415774	-0.000942074	2	1.14418e-05	3.9169e-08
2	0	0	1	1	34.8953	-0.046308	-0.0465431	-0.000900871	2	1.13496e-05	4.19293e-08
2	0	0	1	1	34.9953	-0.0513082	-0.0515458	-0.000864836	2	1.12611e-05	4.45787e-08
2	0	0	1	1	35.0953	-0.0563084	-0.0565814	-0.000832711	2	1.11761e-05	4.71159e-08
2	0	0	1	1	35.1953	-0.0613086	-0.0615672	-0.000801363	2	1.10942e-05	4.93376e-08
2	0	0	1	1	35.2953	-0.0663089	-0.0665996	-0.000775147	2	1.10153e-05	5.16245e-08
2	0	0	1	1	35.3953	-0.071309	-0.0715525	-0.000749492	2	1.0939e-05	5.3628e-08
2	0	0	1	1	35.4953	-0.0763093	-0.0765457	-0.000725856	2	1.08651e-05	5.55611e-08
2	0	0	1	1	35.5953	-0.0813095	-0.0816131	-0.000704096	2	1.07934e-05	5.74634e-08
2	0	0	1	1	35.6953	-0.0863097	-0.0866158	-0.000684024	2	1.07239e-05	5.92473e-08
2	0	0	1	1	35.7953	-0.0913099	-0.0915666	-0.000665009	2	1.06562e-05	6.08926e-08
2	0	0	1	1	35.8953	-0.0963101	-0.0965598	-0.000647939	2	1.05904e-05	6.25648e-08
2	0	0	0	1	35.9955	-0.10131	-0.101536	-0.000631308	2	1.05261e-05	6.41005e-08
2	0	0	0	1	36.0955	-0.10631	-0.106584	-0.000616377	2	1.04635e-05	6.56961e-08
2	0	0	0	1	36.1955	-0.111311	-0.111562	-0.000603797	2	1.04024e-05	6.73605e-08
2	0	0	0	1	36.2955	-0.116311	-0.116546	-0.00059045	2	1.03425e-05	6.88147e-08
2	0	0	0	1	36.3955	-0.121311	-0.121549	-0.000577505	2	1.0284e-05	7.01952e-08
2	0	0	0	1	36.4955	-0.126311	-0.126485	-0.000566149	2	1.02267e-05	7.16094e-08
2	0	0	0	1	36.5955	-0.131311	-0.131523	-0.000554901	2	1.01705e-05	7.29821e-08
2	0	0	0	1	36.6955	-0.136312	-0.136565	-0.00054376	2	1.01154e-05	7.42584e-08
2	0	0	0	1	36.7955	-0.141312	-0.141518	-0.000533581	2	1.00613e-05	7.5511e-08
2	0	0	0	1	36.8955	-0.146312	-0.146545	-0.000524431	2	1.00082e-05	7.68525e-08
2	0	0	0	1	36.9955	-0.151312	-0.151508	-0.000513956	2	9.95608e-06	7.78685e-08
2	0	0	0	1	37.0955	-0.156313	-0.156581	-0.000506945	2	9.90482e-06	7.93779e-08
2	0	0	0	1	37.1955	-0.161313	-0.161581	-0.000498208	2	9.85443e-06	8.05012e-08
2	0	0	0	1	37.2955	-0.166313	-0.166534	-0.000489968	2	9.80483e-06	8.15965e-08
2	0	0	0	1	37.3955	-0.171313	-0.171549	-0.000483369	2	9.75598e-06	8.29213e-08
2	0	0	0	1	37.4955	-0.176313	-0.176571	-0.000476183	2	9.70781e-06	8.40799e-08
2	0	0	0	1	37.5955	-0.181314	-0.181538	-0.000469923	2	9.6603e-06	8.5309e-08
2	0	0	0	1	37.6955	-0.186314	-0.186508	-0.000462762	2	9.61338e-06	8.63089e-08
2	0	0	0	1	37.7955	-0.191314	-0.191549	-0.000459464	2	9.56703e-06	8.80099e-08
2	0	0	0	1	37.8955	-0.196314	-0.19656	-0.000453669	2	9.52118e-06	8.91733e-08
2	1	0	1	0	37.9849	-0.199214	-0.199397	-0.000354904	2	9.48208e-06	7.07669e-08
2	1	0	1	0	38.0849	-0.194214	-0.194425	-0.000323793	2	9.44864e-06	6.29534e-08
2	1	0	1	0	38.1849	-0.189214	-0.189439	-0.000306825	2	9.4174e-06	5.81247e-08
2	1	0	1	0	38.2849	-0.184214	-0.18443	-0.000292967	2	9.38767e-06	5.40321e-08
2	1	0	1	0	38.3849	-0.179213	-0.17943	-0.000281503	2	9.35919e-06	5.05101e-08
2	1	0	1	0	38.4849	-0.174213	-0.174423	-0.000271371	2	9.33182e-06	4.73333e-08
2	1	0	1	0	38.5849	-0.169213	-0.169479	-0.000260953	2	9.30541e-06	4.42262e-08
2	1	0	1	0	38.6849	-0.164213	-0.164473	-0.000253395	2	9.27994e-06	4.16767e-08
2	1	0	1	0	38.7849	-0.159213	-0.159408	-0.000244008	2	9.25528e-06	3.88969e-08
2	1	0	1	0	38.8849	-0.154212	-0.154412	-0.000238202	2	9.23143e-06	3.67812e-08
2	1	0	1	0	38.9849	-0.149212	-0.149409	-0.000229919	2	9.2083e-06	3.4352e-08
2	1	0	1	0	39.0849	-0.144212	-0.144436	-0.000223085	2	9.18587e-06	3.22215e-08
2	1	0	1	0	39.1849	-0.139212	-0.139405	-0.000215898	2	9.16412e-06	3.00971e-08
2	1	0	1	0	39.2849	-0.134212	-0.134397	-0.000209761	2	9.14299e-06	2.81912e-08
2	1	0	1	0	39.3849	-0.129211	-0.129377	-0.000203098	2	9.12249e-06	2.62763e-08
2	1	0	1	0	39.4849	-0.124211	-0.124459	-0.000198059	2	9.10258e-06	2.46502e-08
2	1	0	1	0	39.5849	-0.119211	-0.119394	-0.00019297	2	9.08323e-06	2.30394e-08
2	1	0	1	0	39.6849	-0.114211	-0.114394	-0.000188605	2	9.06443e-06	2.15753e-08
2	1	0	1	0	39.7849	-0.109211	-0.109467	-0.000182794	2	9.04614e-06	2.00098e-08
2	1	0	1	0	39.8849	-0.10421	-0.104439	-0.000178053	2	9.02834e-06	1.85956e-08
2	1	0	1	0	39.9849	-0.0992102	-0.0994231	-0.000172655	3	9.01101e-06	1.71659e-08
2	1	0	0	0	40.0851	-0.09421	-0.0944257	-0.000169154	3	8.99409e-06	1.59724e-08
2	1	0	0	0	40.1851	-0.0892098	-0.0894686	-0.000163884	3	8.97765e-06	1.46625e-08
2	1	0	0	0	40.2851	-0.0842096	-0.0844118	-0.000159558	3	8.96164e-06	1.34686e-08
2	1	0	0	0	40.3851	-0.0792094	-0.0793635	-0.000155934	3	8.94606e-06	1.23754e-08
2	1	0	0	0	40.4851	-0.0742092	-0.0743873	-0.000151813	3	8.93092e-06	1.12929e-08
2	1	0	0	0	40.5851	-0.069209	-0.0694608	-0.000147943	3	8.91618e-06	1.02762e-08
2	1	0	0	0	40.6851	-0.0642088	-0.0643892	-0.000143728	3	8.90189e-06	9.25454e-09
2	1	0	0	0	40.7851	-0.0592086	-0.0594024	-0.000138054	3	8.88802e-06	8.20076e-09
2	1	0	0	0	40.8851	-0.0542084	-0.0544452	-0.000134285	3	8.8746e-06	7.31117e-09
2	1	0	0	0	40.9851	-0.0492081	-0.0494298	-0.000129968	3	8.86169e-06	6.42428e-09
2	1	0	0	0	41.0851	-0.0442079	-0.0444112	-0.000123731	3	8.84925e-06	5.49502e-09
2	1	0	0	0	41.1851	-0.0392077	-0.0394455	-0.000117997	3	8.83736e-06	4.65445e-09
2	1	0	0	0	41.2851	-0.0342075	-0.0344025	-0.000112136	3	8.82607e-06	3.85776e-09
2	1	0	0	0	41.3851	-0.0292073	-0.0293595	-0.000103906	3	8.81548e-06	3.05064e-09
2	1	0	0	0	41.4851	-0.0242071	-0.0244045	-9.66059e-05	3	8.80569e-06	2.35762e-09
2	1	0	0	0	41.5851	-0.0192069	-0.0193742	-8.59263e-05	3	8.79684e-06	1.66475e-09
2	1	0	0	0	41.6851	-0.0142067	-0.014398	-7.22809e-05	3	8.78912e-06	1.0407e-09
2	1	0	0	0	41.7851	-0.00920652	-0.00942067	-5.8752e-05	3	8.78281e-06	5.53484e-10
2	1	0	0	0	41.8851	-0.00420631	-0.00442113	-3.79527e-05	3	8.77826e-06	1.67794e-10
2	1	0	0	0	41.9851	0.000793888	0.000617646	-1.17783e-05	3	8.77593e-06	-7.27479e-12
2	1	0	0	0	42.0851	0.00579409	0.00559599	1.79696e-05	3	8.77637e-06	1.00558e-10
2	1	0	0	0	42.1851	0.0107943	0.0106157	5.81834e-05	3	8.78035e-06	6.17656e-10
2	1	0	0	0	42.2851	0.0157945	0.0156163	0.000108137	3	8.78883e-06	1.6887e-09
2	1	0	0	0	42.3851	0.0207947	0.020671	0.000171079	3	8.80297e-06	3.53637e-09
2	1	0	0	0	42.4851	0.0257949	0.0256398	0.000247822	3	8.82414e-06	6.35409e-09
2	1	0	0	0	42.5851	0.0307951	0.0306096	0.000344318	3	8.85395e-06	1.05395e-08
2	1	0	0	0	42.6851	0.0357953	0.0355975	0.000457255	3	8.89414e-06	1.62771e-08
2	1	0	0	0	42.7851	0.0407955	0.040613	0.000587136	3	8.94654e-06	2.38453e-08
2	1	0	0	0	42.8851	0.0457957	0.0456178	0.000733851	3	9.01284e-06	3.34767e-08
2	1	0	0	0	42.9851	0.0507959	0.0506195	0.000897403	3	9.09454e-06	4.54261e-08
2	1	0	0	0	43.0851	0.0557961	0.0555936	0.00106359	3	9.19274e-06	5.91289e-08
2	1	0	0	0	43.1851	0.0607963	0.0606546	0.00122939	3	9.30764e-06	7.45679e-08
2	1	0	0	0	43.2851	0.0657965	0.065705	0.00138758	3	9.43889e-06	9.1171e-08
2	1	0	0	0	43.3851	0.0707967	0.0706198	0.00152779	3	9.58519e-06	1.07893e-07
2	1	0	0	0	43.4851	0.0757969	0.0755759	0.00164852	3	9.74456e-06	1.24589e-07
2	1	0	0	0	43.5851	0.0807971	0.0806507	0.00174032	3	9.91449e-06	1.40358e-07
2	1	0	0	0	43.6851	0.0857973	0.0855993	0.00180081	3	1.0092e-05	1.54148e-07
2	1	0	0	0	43.7851	0.0907975	0.0906434	0.00183451	3	1.02743e-05	1.66287e-07
2	1	0	0	0	43.8851	0.0957977	0.0956048	0.00184182	3	1.04585e-05	1.76087e-07
2	1	0	0	0	43.9851	0.100798	0.100608	0.00182841	3	1.06424e-05	1.83952e-07
2	1	0	0	0	44.0851	0.105798	0.105586	0.00179889	3	1.08242e-05	1.89938e-07
2	1	0	0	0	44.1851	0.110798	0.1106	0.00175694	3	1.10024e-05	1.94318e-07
2	1	0	0	0	44.2851	0.115798	0.115615	0.00171143	3	1.11762e-05	1.97866e-07
2	1	0	0	0	44.3851	0.120799	0.120641	0.00166006	3	1.1345e-05	2.0027e-07
2	1	0	0	0	44.4851	0.125799	0.125633	0.00160642	3	1.15087e-05	2.01819e-07
2	1	0	0	0	44.5851	0.130799	0.130607	0.00155436	3	1.16671e-05	2.0301e-07
2	1	0	0	0	44.6851	0.135799	0.135595	0.00150529	3	1.18203e-05	2.04109e-07
2	1	0	0	0	44.7851	0.1408	0.14057	0.00145664	3	1.19686e-05	2.0476e-07
2	1	0	0	0	44.8851	0.1458	0.145606	0.00141121	3	1.21123e-05	2.0548e-07
2	1	0	1	0	44.9853	0.1508	0.150588	0.00136911	3	1.22519e-05	2.06171e-07
2	1	0	1	0	45.0853	0.1558	0.155648	0.00132949	3	1.23871e-05	2.06933e-07
2	1	0	1	0	45.1853	0.1608	0.160651	0.00129517	3	1.25186e-05	2.08069e-07
2	1	0	1	0	45.2853	0.165801	0.165602	0.00126025	3	1.26465e-05	2.087e-07
2	1	0	1	0	45.3853	0.170801	0.170634	0.00122803	3	1.27711e-05	2.09544e-07
2	1	0	1	0	45.4853	0.175801	0.175641	0.00120053	3	1.28927e-05	2.10862e-07
2	1	0	1	0	45.5853	0.180801	0.180681	0.00117068	3	1.30114e-05	2.11519e-07
2	1	0	1	0	45.6853	0.185801	0.185634	0.00114613	3	1.31275e-05	2.12761e-07
2	1	0	1	0	45.7853	0.190802	0.190645	0.00112115	3	1.32411e-05	2.13741e-07
2	1	0	1	0	45.8853	0.195802	0.195649	0.00110036	3	1.33524e-05	2.15283e-07
2	1	0	1	0	45.9853	0.200802	0.200624	0.00107918	3	1.34616e-05	2.1651e-07
2	1	0	1	0	46.0853	0.205802	0.20568	0.00106024	3	1.35689e-05	2.1807e-07
2	1	0	1	0	46.1853	0.210802	0.21062	0.00104398	3	1.36743e-05	2.19883e-07
2	1	0	1	0	46.2853	0.215803	0.215632	0.00102567	3	1.3778e-05	2.21167e-07
2	1	0	1	0	46.3853	0.220803	0.220625	0.00101058	3	1.38802e-05	2.2296e-07
2	1	0	1	0	46.4853	0.225803	0.225596	0.000995509	3	1.39808e-05	2.24583e-07
2	1	0	1	0	46.5853	0.230803	0.230625	0.0009821	3	1.40799e-05	2.26497e-07
2	1	0	1	0	46.6853	0.235803	0.235601	0.00096852	3	1.41777e-05	2.28184e-07
2	1	0	1	0	46.7853	0.240804	0.240628	0.000954645	3	1.42741e-05	2.29714e-07
2	1	0	1	0	46.8853	0.245804	0.245652	0.000942111	3	1.43693e-05	2.31431e-07
2	1	0	1	0	46.9853	0.250804	0.250645	0.000930541	3	1.44633e-05	2.33235e-07
2	1	0	1	0	47.0853	0.255804	0.255639	0.000922559	3	1.45562e-05	2.35842e-07
2	1	0	1	0	47.1853	0.260804	0.260651	0.00091022	3	1.4648e-05	2.3725e-07
2	1	0	1	0	47.2853	0.265805	0.265626	0.000900869	3	1.47389e-05	2.39295e-07
2	1	0	1	0	47.3853	0.270805	0.270621	0.000893404	3	1.48289e-05	2.41774e-07
2	1	0	1	0	47.4853	0.275805	0.275639	0.00088609	3	1.49181e-05	2.44241e-07
2	1	0	1	0	47.5853	0.280805	0.280654	0.000881585	3	1.50066e-05	2.4742e-07
2	1	0	1	0	47.6853	0.285805	0.285678	0.00087341	3	1.50945e-05	2.49514e-07
2	1	0	1	0	47.7853	0.290806	0.290619	0.000868422	3	1.51818e-05	2.5238e-07
2	1	0	1	0	47.8853	0.295806	0.295641	0.00086481	3	1.52686e-05	2.55673e-07
2	0	0	1	0	47.9749	0.299706	0.299503	0.00077557	3	1.53455e-05	2.32285e-07
2	0	0	1	0	48.0749	0.294706	0.294477	0.000727575	3	1.542e-05	2.14254e-07
2	0	0	1	0	48.1749	0.289706	0.289463	0.000702563	3	1.54913e-05	2.03366e-07
2	0	0	1	0	48.2749	0.284705	0.28455	0.000682871	3	1.55604e-05	1.94311e-07
2	0	0	1	0	48.3749	0.279705	0.279488	0.000666822	3	1.56277e-05	1.86368e-07
2	0	0	1	0	48.4749	0.274705	0.274494	0.000652505	3	1.56934e-05	1.79109e-07
2	0	0	1	0	48.5749	0.269705	0.269497	0.000638863	3	1.57578e-05	1.72172e-07
2	0	0	1	0	48.6749	0.264705	0.264456	0.000627857	3	1.58209e-05	1.66041e-07
2	0	0	1	0	48.7749	0.259704	0.259517	0.000617099	3	1.58829e-05	1.60148e-07
2	0	0	1	0	48.8749	0.254704	0.254509	0.000607033	3	1.59438e-05	1.54495e-07
2	0	0	1	0	48.9749	0.249704	0.249484	0.000596537	3	1.60037e-05	1.48826e-07
2	0	0	1	0	49.0749	0.244704	0.24451	0.000586874	3	1.60627e-05	1.43497e-07
2	0	0	1	0	49.1749	0.239703	0.239484	0.00057788	3	1.61207e-05	1.38393e-07
2	0	0	1	0	49.2749	0.234703	0.23455	0.00057076	3	1.61779e-05	1.33872e-07
2	0	0	1	0	49.3749	0.229703	0.229506	0.000560629	3	1.62342e-05	1.28668e-07
2	0	0	1	0	49.4749	0.224703	0.224492	0.000552274	3	1.62897e-05	1.23981e-07
2	0	0	1	0	49.5749	0.219703	0.219515	0.00054509	3	1.63444e-05	1.19656e-07
2	0	0	1	0	49.6749	0.214702	0.214503	0.000537361	3	1.63983e-05	1.15265e-07
2	0	0	1	0	49.7749	0.209702	0.209487	0.00052905	3	1.64514e-05	1.10829e-07
2	0	0	1	0	49.8749	0.204702	0.20449	0.000520297	3	1.65037e-05	1.06396e-07
2	0	0	1	0	49.9749	0.199702	0.199564	0.000513044	3	1.65551e-05	1.02385e-07
2	0	0	1	0	50.0749	0.194702	0.194506	0.00050482	3	1.66058e-05	9.81905e-08
2	0	0	1	0	50.1749	0.189701	0.189461	0.000496534	3	1.66557e-05	9.40737e-08
2	0	0	1	0	50.2749	0.184701	0.184509	0.000487806	3	1.67048e-05	9.00046e-08
2	0	0	1	0	50.3749	0.179701	0.179514	0.000480915	3	1.6753e-05	8.63309e-08
2	0	0	1	0	50.4749	0.174701	0.174472	0.000471183	3	1.68004e-05	8.2208e-08
2	0	0	1	0	50.5749	0.169701	0.169491	0.000462768	3	1.68469e-05	7.8435e-08
2	0	0	1	0	50.6749	0.1647	0.164466	0.000453847	3	1.68925e-05	7.46425e-08
2	0	0	1	0	50.7749	0.1597	0.159502	0.000444344	3	1.69372e-05	7.08736e-08
2	0	0	1	0	50.8749	0.1547	0.154471	0.000433767	3	1.6981e-05	6.70046e-08
2	0	0	1	0	50.9749	0.1497	0.149532	0.000423154	3	1.70236e-05	6.32752e-08
2	0	0	0	0	51.0751	0.1447	0.144445	0.000411007	3	1.70653e-05	5.93678e-08
2	0	0	0	0	51.1751	0.139699	0.139488	0.000399011	3	1.71057e-05	5.56571e-08
2	0	0	0	0	51.2751	0.134699	0.134515	0.000386359	3	1.71447e-05	5.19708e-08
2	0	0	0	0	51.3751	0.129699	0.129447	0.000371244	3	1.71824e-05	4.80564e-08
2	0	0	0	0	51.4751	0.124699	0.124491	0.000352257	3	1.72183e-05	4.38528e-08
2	0	0	0	0	51.5751	0.119699	0.119537	0.000331273	3	1.72524e-05	3.95995e-08
2	0	0	0	0	51.6751	0.114698	0.114507	0.00030892	3	1.72842e-05	3.53734e-08
2	0	0	0	0	51.7751	0.109698	0.109477	0.00028017	3	1.73135e-05	3.0672e-08
2	0	0	0	0	51.8751	0.104698	0.1045	0.000246078	3	1.73397e-05	2.57153e-08
2	0	0	0	0	51.9751	0.0996979	0.0994382	0.000204966	3	1.73621e-05	2.03814e-08
2	0	0	0	0	52.0751	0.0946977	0.0944768	0.000155579	3	1.73801e-05	1.46986e-08
2	0	0	0	0	52.1751	0.0896975	0.0894465	9.48379e-05	3	1.73925e-05	8.48292e-09
2	0	0	0	0	52.2751	0.0846973	0.084501	2.09831e-05	3	1.73983e-05	1.77309e-09
2	0	0	0	0	52.3751	0.0796971	0.0794877	-6.78366e-05	3	1.7396e-05	-5.39218e-09
2	0	0	0	0	52.4751	0.0746969	0.0745359	-0.000173479	3	1.73839e-05	-1.29304e-08
2	0	0	0	0	52.5751	0.0696967	0.0694918	-0.000298083	3	1.73602e-05	-2.07143e-08
2	0	0	0	0	52.6751	0.0646964	0.0644658	-0.00044498	3	1.73231e-05	-2.8686e-08
2	0	0	0	0	52.7751	0.0596963	0.0594927	-0.000604466	3	1.72705e-05	-3.59613e-08
2	0	0	0	0	52.8751	0.0546961	0.0544783	-0.000780694	3	1.72011e-05	-4.25309e-08
2	0	0	0	0	52.9751	0.0496959	0.049536	-0.000961939	3	1.71138e-05	-4.76506e-08
2	0	0	0	0	53.0751	0.0446957	0.0445004	-0.00113902	3	1.70085e-05	-5.0687e-08
2	0	0	0	0	53.1751	0.0396955	0.03945	-0.00130095	3	1.68861e-05	-5.13224e-08
2	0	0	0	0	53.2751	0.0346953	0.0344547	-0.00143687	3	1.67488e-05	-4.9507e-08
2	0	0	0	0	53.3751	0.0296951	0.02947	-0.00153733	3	1.65996e-05	-4.5305e-08
2	0	0	0	0	53.4751	0.0246949	0.0244683	-0.00160129	3	1.64422e-05	-3.91809e-08
2	0	0	0	0	53.5751	0.0196946	0.0194741	-0.00162677	3	1.62804e-05	-3.16798e-08
2	0	0	0	0	53.6751	0.0146944	0.0144926	-0.00161369	3	1.61179e-05	-2.33866e-08
2	0	0	0	0	53.7751	0.00969425	0.00949831	-0.00157941	3	1.59577e-05	-1.50017e-08
2	0	0	0	0	53.8751	0.00469405	0.00443197	-0.00152581	3	1.58022e-05	-6.76235e-09
2	0	0	0	0	53.9751	-0.000306156	-0.000533649	-0.00145943	3	1.56527e-05	7.78823e-10
2	0	0	0	0	54.0751	-0.00530636	-0.0055703	-0.00138852	3	1.551e-05	7.73445e-09
2	0	0	0	0	54.1751	-0.0103066	-0.0105243	-0.00131703	3	1.53745e-05	1.38608e-08
2	0	0	0	0	54.2751	-0.0153068	-0.015491	-0.0012498	3	1.52461e-05	1.93605e-08
2	0	0	0	0	54.3751	-0.020307	-0.0205064	-0.00118297	3	1.51244e-05	2.42585e-08
2	0	0	0	0	54.4751	-0.0253072	-0.025559	-0.00112212	3	1.50089e-05	2.86803e-08
2	0	0	0	0	54.5751	-0.0303074	-0.030603	-0.00106733	3	1.48992e-05	3.26634e-08
2	0	0	0	0	54.6751	-0.0353076	-0.0355591	-0.00101771	3	1.47947e-05	3.61889e-08
2	0	0	0	0	54.7751	-0.0403078	-0.0405406	-0.00097295	3	1.4695e-05	3.9444e-08
2	0	0	0	0	54.8751	-0.045308	-0.0455349	-0.000932187	3	1.45997e-05	4.2447e-08
2	0	0	0	0	54.9751	-0.0503082	-0.0505397	-0.000894294	3	1.45082e-05	4.51974e-08
2	0	0	0	0	55.0751	-0.0553084	-0.0555319	-0.000859572	3	1.44203e-05	4.77337e-08
2	0	0	0	0	55.1751	-0.0603086	-0.0605452	-0.000828977	3	1.43357e-05	5.01905e-08
2	0	0	0	0	55.2751	-0.0653088	-0.0655172	-0.000800928	3	1.4254e-05	5.24745e-08
2	0	0	0	0	55.3751	-0.070309	-0.0705729	-0.000775296	3	1.4175e-05	5.47149e-08
2	0	0	0	0	55.4751	-0.0753092	-0.0755587	-0.000751555	3	1.40985e-05	5.67865e-08
2	0	0	0	0	55.5751	-0.0803094	-0.0805593	-0.000728576	3	1.40243e-05	5.86936e-08
2	0	0	0	0	55.6751	-0.0853096	-0.0856055	-0.000707415	3	1.39523e-05	6.05586e-08
2	0	0	0	0	55.7751	-0.0903098	-0.0905287	-0.000689861	3	1.38822e-05	6.24522e-08
2	0	0	0	0	55.8751	-0.09531	-0.0955781	-0.000671737	3	1.3814e-05	6.42034e-08
2	0	0	1	0	55.9753	-0.10031	-0.100545	-0.000653851	3	1.37473e-05	6.57413e-08
2	0	0	1	0	56.0753	-0.10531	-0.105534	-0.000639133	3	1.36824e-05	6.74501e-08
2	0	0	1	0	56.1753	-0.110311	-0.110562	-0.000624458	3	1.3619e-05	6.90413e-08
2	0	0	1	0	56.2753	-0.115311	-0.115525	-0.000610735	3	1.35569e-05	7.05554e-08
2	0	0	1	0	56.3753	-0.120311	-0.120561	-0.000598571	3	1.34962e-05	7.21644e-08
2	0	0	1	0	56.4753	-0.125311	-0.12561	-0.00058559	3	1.34366e-05	7.35562e-08
2	0	0	1	0	56.5753	-0.130311	-0.130543	-0.000574888	3	1.33783e-05	7.50476e-08
2	0	0	1	0	56.6753	-0.135312	-0.135539	-0.000563772	3	1.33211e-05	7.64133e-08
2	0	0	1	0	56.7753	-0.140312	-0.140524	-0.000553596	3	1.3265e-05	7.77936e-08
2	0	0	1	0	56.8753	-0.145312	-0.145499	-0.000544375	3	1.32099e-05	7.92062e-08
2	0	0	1	0	56.9753	-0.150312	-0.150584	-0.000533612	3	1.31558e-05	8.03533e-08
2	0	0	1	0	57.0753	-0.155312	-0.155606	-0.000525093	3	1.31026e-05	8.17074e-08
2	0	0	1	0	57.1753	-0.160313	-0.160559	-0.000516019	3	1.30503e-05	8.28517e-08
2	0	0	1	0	57.2753	-0.165313	-0.165516	-0.000507553	3	1.29989e-05	8.40079e-08
2	0	0	1	0	57.3753	-0.170313	-0.170568	-0.000499895	3	1.29482e-05	8.52662e-08
2	0	0	1	0	57.4753	-0.175313	-0.175565	-0.000493861	3	1.28983e-05	8.67045e-08
2	0	0	1	0	57.5753	-0.180313	-0.180529	-0.000486766	3	1.2849e-05	8.78753e-08
2	0	0	1	0	57.6753	-0.185314	-0.185551	-0.000481046	3	1.28004e-05	8.92585e-08
2	0	0	1	0	57.7753	-0.190314	-0.190532	-0.000475927	3	1.27524e-05	9.06795e-08
2	0	0	1	0	57.8753	-0.195314	-0.195588	-0.000469845	3	1.27049e-05	9.18962e-08
2	1	0	1	1	57.9692	-0.199989	-0.19999	-0.000455792	3	1.26608e-05	9.11537e-08
2	1	0	0	1	58.0647	-0.195214	-0.195426	-0.000342214	3	1.2627e-05	6.68776e-08
2	1	0	0	1	58.1647	-0.190214	-0.190408	-0.000324598	3	1.25941e-05	6.18062e-08
2	1	0	0	1	58.2647	-0.185214	-0.185409	-0.00030925	3	1.25627e-05	5.73377e-08
2	1	0	0	1	58.3647	-0.180213	-0.180404	-0.000297648	3	1.25326e-05	5.36969e-08
2	1	0	0	1	58.4647	-0.175213	-0.175367	-0.00028604	3	1.25037e-05	5.0162e-08
2	1	0	0	1	58.5647	-0.170213	-0.170385	-0.000276552	3	1.24758e-05	4.71203e-08
2	1	0	0	1	58.6647	-0.165213	-0.165421	-0.000267835	3	1.24488e-05	4.43056e-08
2	1	0	0	1	58.7647	-0.160213	-0.16039	-0.000259789	3	1.24227e-05	4.16675e-08
2	1	0	0	1	58.8647	-0.155212	-0.155424	-0.00025202	3	1.23974e-05	3.91701e-08
2	1	0	0	1	58.9647	-0.150212	-0.15044	-0.000243314	3	1.23728e-05	3.6604e-08
2	1	0	0	1	59.0647	-0.145212	-0.145412	-0.000238062	3	1.2349e-05	3.46172e-08
2	1	0	0	1	59.1647	-0.140212	-0.140402	-0.000229921	3	1.23258e-05	3.22814e-08
2	1	0	0	1	59.2647	-0.135212	-0.135389	-0.000223378	3	1.23033e-05	3.0243e-08
2	1	0	0	1	59.3647	-0.130211	-0.130397	-0.000218673	3	1.22815e-05	2.85142e-08
2	1	0	0	1	59.4647	-0.125211	-0.125417	-0.000212307	3	1.22603e-05	2.66269e-08
2	1	0	0	1	59.5647	-0.120211	-0.120432	-0.000206518	3	1.22396e-05	2.48713e-08
2	1	0	0	1	59.6647	-0.115211	-0.115409	-0.000199963	3	1.22195e-05	2.30775e-08
2	1	0	0	1	59.7647	-0.110211	-0.11045	-0.000196617	3	1.22e-05	2.17163e-08
2	1	0	0	1	59.8647	-0.10521	-0.105425	-0.000191483	3	1.21809e-05	2.0187e-08
2	1	0	0	1	59.9647	-0.10021	-0.100402	-0.000186392	3	1.21624e-05	1.8714e-08
2	1	0	1	1	60.0649	-0.09521	-0.0954583	-0.000180778	3	1.21442e-05	1.72568e-08
2	1	0	1	1	60.1649	-0.0902098	-0.0904301	-0.000177095	3	1.21266e-05	1.60147e-08
2	1	0	1	1	60.2649	-0.0852096	-0.0853807	-0.000171907	3	1.21094e-05	1.46776e-08
2	1	0	1	1	60.3649	-0.0802094	-0.080378	-0.000167338	3	1.20926e-05	1.34503e-08
2	1	0	1	1	60.4649	-0.0752092	-0.0753997	-0.000163141	3	1.20763e-05	1.23008e-08
2	1	0	1	1	60.5649	-0.070209	-0.070434	-0.000159523	3	1.20604e-05	1.12359e-08
2	1	0	1	1	60.6649	-0.0652088	-0.0653974	-0.000155506	3	1.2045e-05	1.01697e-08
2	1	0	1	1	60.7649	-0.0602086	-0.0603915	-0.000149103	3	1.203e-05	9.00456e-09
2	1	0	0	1	60.8042	-0.0582335	-0.0585331	-0.000157824	3	1.20242e-05	9.23791e-09